time_log,id,ax,ay,az,gx,gy,gz,AGL,altitude,velocity,pressure,latitude,longitude,time,state
2023-08-01-15:50:05,254,-0.54,1.09,10.66,-0.04,0.01,-0.02,-2.11,1437.89,0.01,85209,-1.105961833,36.975886,20230601,0
2023-08-01-15:50:07,255,-0.54,1.08,10.66,-0.04,0.01,-0.02,-2.78,1437.22,0,85216,-1.105962333,36.97588567,12495300,0
2023-08-01-15:50:08,256,-0.54,1.1,10.66,-0.04,0.01,-0.02,-2.97,1437.03,0,85217,-1.105962333,36.97588567,12495300,0
2023-08-01-15:50:09,257,-0.53,1.09,10.66,-0.04,0.01,-0.02,-3.35,1436.65,0,85214,-1.105962333,36.97588567,20230601,0
2023-08-01-15:50:09,258,-0.54,1.09,10.66,-0.04,0.01,-0.02,-3.64,1436.36,-0.01,85214,-1.105962667,36.9758855,12495400,0
2023-08-01-15:50:10,259,-0.62,1.08,10.65,-0.05,0.01,-0.02,-3.45,1436.55,0,85213,-1.105962667,36.9758855,20230601,0
2023-08-01-15:50:10,260,-0.46,1.06,10.46,-0.06,-0.04,-0.02,-2.58,1437.42,0,85209,-1.105962667,36.9758855,20230601,0
2023-08-01-15:50:11,261,-1.2,1.17,10.6,-0.05,0.11,-0.06,-3.06,1436.94,0,85214,-1.105963167,36.97588567,12495500,0
2023-08-01-15:50:11,262,-0.26,1,10.71,-0.05,0.03,-0.02,-2.78,1437.22,0,85213,-1.105963167,36.97588567,12495500,0
2023-08-01-15:50:12,263,-0.37,1.04,10.69,-0.06,0.12,-0.05,-2.11,1437.89,0,85204,-1.105963167,36.97588567,20230601,0
2023-08-01-15:50:12,264,-0.78,1.11,10.74,-0.06,0.11,-0.05,-3.16,1436.84,-0.01,85210,-1.105963333,36.97588583,12495600,0
2023-08-01-15:50:12,265,-0.47,1.22,10.81,-0.03,-0.02,-0.01,-2.78,1437.22,0,85209,-1.105963333,36.97588583,12495600,0
2023-08-01-15:50:12,266,-0.81,0.91,10.48,-0.04,-0.02,-0.02,-4.69,1435.31,-0.01,85232,-1.105963333,36.975886,12495700,0
2023-08-01-15:50:13,267,-0.6,1.13,10.72,-0.06,0.06,-0.04,-6.32,1433.68,-0.01,85254,-1.105963333,36.975886,12495700,0
2023-08-01-15:50:13,268,-0.55,1.08,10.73,-0.05,0.02,-0.03,-7.09,1432.91,0.01,85263,-1.105963333,36.975886,20230601,0
2023-08-01-15:50:13,269,-0.67,0.9,10.48,-0.04,-0.01,-0.02,0.96,1440.96,0.01,85175,-1.105963,36.97588583,12495800,0
2023-08-01-15:50:14,270,-0.46,1.2,10.77,-0.03,-0.04,-0.01,-0.57,1439.43,0,85179,-1.105963,36.97588583,20230601,0
2023-08-01-15:50:14,271,0.02,1.02,10.81,-0.04,0.03,-0.02,0.1,1440.1,0.01,85184,-1.105962167,36.97588583,12495900,0
2023-08-01-15:50:14,272,-0.42,1.1,10.52,-0.02,0,-0.04,-0.76,1439.24,0,85190,-1.105962167,36.97588583,12495900,0
2023-08-01-15:50:14,273,-0.5,0.71,10.92,-0.12,0.42,-0.03,-0.86,1439.14,0,85191,-1.105962667,36.97588567,12500000,0
2023-08-01-15:50:14,274,-2.73,0.26,13.03,-0.27,-0.18,-0.02,0.58,1440.58,0.01,85180,-1.1059635,36.9758855,12500100,0
2023-08-01-15:50:15,275,-0.84,1.2,11.49,-0.11,0.35,-0.08,0.96,1440.96,0.01,85175,-1.1059635,36.9758855,12500100,0
2023-08-01-15:50:15,276,-0.91,0.11,11.19,0.11,0.24,0,1.34,1441.34,-0.01,85171,-1.1059635,36.9758855,20230601,0
2023-08-01-15:50:15,277,-1.31,1.17,10.98,-0.06,0.06,-0.04,1.82,1441.82,0,85163,-1.105963333,36.97588567,12500200,0
2023-08-01-15:50:15,278,-0.87,1,10.8,-0.01,0.09,-0.03,2.59,1442.59,0,85151,-1.105963333,36.97588567,20230601,0
2023-08-01-15:50:16,279,-1.38,0.62,10.94,-0.11,0.02,-0.02,2.21,1442.21,0,85157,-1.105962,36.975886,12500300,0
2023-08-01-15:50:16,280,-1.35,0.83,10.66,-0.02,-0.1,-0.03,2.11,1442.11,0,85157,-1.1059605,36.97588583,12500500,0
2023-08-01-15:50:16,281,-0.82,1.11,10.88,0,-0.06,-0.04,3.26,1443.26,0,85151,-1.105959,36.97588583,12500600,0
2023-08-01-15:50:16,282,-1.22,1,10.81,-0.06,-0.03,-0.02,3.26,1443.26,0,85156,-1.105959,36.97588583,20230601,0
2023-08-01-15:50:16,283,-1.29,0.71,10.73,0.03,0.05,-0.02,2.69,1442.69,0,85151,-1.105959,36.97588583,20230601,0
2023-08-01-15:50:16,284,-1.16,1.12,10.95,-0.03,0.02,-0.01,3.07,1443.07,-0.01,85148,-1.105959,36.97588583,20230601,0
2023-08-01-15:50:16,285,-1.2,0.97,10.54,-0.06,0.05,0,3.93,1443.93,0,85138,-1.105956,36.97588617,12501000,0
2023-08-01-15:50:17,286,-1.06,0.86,10.79,-0.06,0.1,-0.03,3.93,1443.93,0,85141,-1.105956,36.97588617,20230601,0
2023-08-01-15:50:17,287,-1.29,1.03,10.77,-0.04,0,-0.01,4.41,1444.41,0,85135,-1.105956167,36.97588667,12501100,0
2023-08-01-15:50:17,288,-1.39,0.79,10.67,0.01,0.04,0,4.7,1444.7,0,85131,-1.105956167,36.97588667,12501100,0
2023-08-01-15:50:17,289,-1.2,0.92,10.64,-0.08,0.05,-0.01,5.08,1445.08,0,85128,-1.105956167,36.97588667,20230601,0
2023-08-01-15:50:18,290,-1.05,0.59,10.35,-0.06,0.04,-0.01,5.85,1445.85,0,85131,-1.105955667,36.97588467,12501200,0
2023-08-01-15:50:18,291,-0.97,1.09,10.99,0,-0.02,-0.02,6.52,1446.52,0.01,85127,-1.105955667,36.97588467,20230601,0
2023-08-01-15:50:18,292,-1.28,0.91,10.98,-0.01,-0.02,-0.02,6.42,1446.42,0,85120,-1.105955667,36.97588467,20230601,0
2023-08-01-15:50:18,293,-1.28,0.53,10.73,-0.1,0.02,-0.04,6.04,1446.04,0,85122,-1.105954333,36.97588167,12501300,0
2023-08-01-15:50:18,294,-1.32,0.8,10.77,-0.11,0.05,-0.04,4.89,1444.89,0,85130,-1.105954333,36.97588167,20230601,0
2023-08-01-15:50:18,295,-0.84,1.39,11.18,-0.11,0,-0.03,4.89,1444.89,0,85128,-1.105954333,36.97588167,20230601,0
2023-08-01-15:50:19,296,-1.13,1.03,10.8,0.02,-0.02,0.01,6.71,1446.71,0,85114,-1.105954333,36.97588167,20230601,0
2023-08-01-15:50:19,297,-1.19,0.97,10.88,0.05,-0.01,-0.01,5.85,1445.85,-0.02,85110,-1.105952833,36.97588283,12501400,0
2023-08-01-15:50:19,298,-1.03,0.77,10.8,-0.11,0.05,-0.05,7,1447,0,85108,-1.105952833,36.97588283,20230601,0
2023-08-01-15:50:19,299,-1.3,0.93,10.64,-0.07,0.06,-0.03,7.96,1447.96,0.01,85106,-1.105952833,36.97588283,20230601,0
2023-08-01-15:50:20,300,-1.06,0.9,10.68,0.05,-0.07,0.01,8.92,1448.92,0.01,85092,-1.105952833,36.97588283,20230601,0
2023-08-01-15:50:20,301,-0.96,0.61,11.1,0.02,-0.05,-0.02,9.49,1449.49,0.03,85089,-1.105952833,36.97588283,20230601,0
2023-08-01-15:50:20,302,-0.98,1.09,10.79,-0.12,0.05,-0.01,9.97,1449.97,0,85081,-1.105953,36.97588317,12501500,0
2023-08-01-15:50:20,303,-1.06,0.97,11,-0.06,0.02,-0.01,9.4,1449.4,0,85087,-1.105953,36.97588317,12501500,0
2023-08-01-15:50:20,304,-1.19,1.02,10.97,-0.03,0.02,-0.01,9.11,1449.11,0,85090,-1.105953,36.97588317,20230601,0
2023-08-01-15:50:20,305,-1.13,0.84,10.65,-0.06,0.07,-0.01,9.59,1449.59,0,85087,-1.105953,36.97588317,20230601,0
2023-08-01-15:50:21,306,-1.12,0.9,10.64,-0.05,0.08,-0.02,10.84,1450.84,0.01,85077,-1.105953,36.97588317,20230601,0
2023-08-01-15:50:21,307,-1,0.74,10.69,-0.03,0.07,-0.04,11.22,1451.22,0.01,85075,-1.1059535,36.97588233,12501600,0
2023-08-01-15:50:21,308,-1.13,1.06,10.47,-0.03,0.02,-0.03,13.14,1453.14,0.02,85060,-1.1059535,36.97588233,20230601,0
2023-08-01-15:50:21,309,-1.29,0.75,10.8,-0.09,0.01,-0.04,13.14,1453.14,0,85049,-1.1059535,36.97588233,20230601,0
2023-08-01-15:50:21,310,-1.25,0.85,10.59,-0.1,0.05,-0.04,12.75,1452.75,0,85050,-1.1059535,36.97588233,20230601,0
2023-08-01-15:50:22,311,-0.95,0.88,10.79,-0.02,0.03,-0.03,12.75,1452.75,0,85053,-1.1059535,36.97588233,20230601,0
2023-08-01-15:50:22,312,-0.8,1.08,11,-0.09,0.03,-0.03,13.04,1453.04,0,85049,-1.105950167,36.975882,12501700,0
2023-08-01-15:50:22,313,-0.81,1.13,10.91,-0.05,0,-0.02,13.14,1453.14,0.01,85047,-1.105950167,36.975882,12501700,0
2023-08-01-15:50:22,314,-1.21,0.93,10.56,-0.05,0,-0.02,13.23,1453.23,0,85046,-1.105950167,36.975882,20230601,0
2023-08-01-15:50:22,315,-1.5,0.83,10.95,-0.04,0.04,-0.01,13.33,1453.33,0,85042,-1.105950167,36.975882,20230601,0
2023-08-01-15:50:22,316,-1.03,0.84,11.37,-0.04,0.08,-0.02,13.52,1453.52,0,85037,-1.105950167,36.975882,20230601,0
2023-08-01-15:50:23,317,-1.18,0.84,10.9,-0.02,0.05,-0.01,14.67,1454.67,0,85030,-1.105950167,36.975882,20230601,0
2023-08-01-15:50:23,318,-1.03,1.02,11.15,-0.01,-0.07,-0.02,15.15,1455.15,0,85028,-1.105947167,36.97588317,12501800,0
2023-08-01-15:50:23,319,-1.06,0.99,11.09,-0.04,-0.02,-0.02,14.87,1454.87,-0.01,85023,-1.105947167,36.97588317,20230601,0
2023-08-01-15:50:24,320,-1.16,0.78,10.4,-0.04,0.02,-0.02,16.59,1456.59,0.01,85017,-1.105947167,36.97588317,20230601,0
2023-08-01-15:50:24,321,-0.67,0.96,10.7,-0.07,0.01,-0.04,16.5,1456.5,0.01,85021,-1.105947167,36.97588317,20230601,0
2023-08-01-15:50:24,322,-0.76,0.96,11.01,-0.05,0.02,-0.02,17.46,1457.46,0.01,85004,-1.105947167,36.97588317,20230601,0
2023-08-01-15:50:24,323,-0.69,1.05,10.86,-0.05,0,-0.02,17.84,1457.84,0,84997,-1.105951333,36.97588083,12501900,0
2023-08-01-15:50:24,324,-0.68,0.9,9.48,-0.04,0,-0.02,16.88,1456.88,0,85006,-1.105951333,36.97588083,20230601,0
2023-08-01-15:50:24,325,-0.81,0.6,8.79,-0.02,0.01,-0.05,16.88,1456.88,0,85005,-1.105951333,36.97588083,20230601,0
2023-08-01-15:50:25,326,-0.47,0.68,7.18,-0.04,0.04,-0.02,16.11,1456.11,-0.01,85011,-1.105946,36.97588,12502000,0
2023-08-01-15:50:25,327,-0.86,0.46,7.53,-0.03,0.02,-0.03,16.59,1456.59,0.01,85013,-1.105946,36.97588,20230601,0
2023-08-01-15:50:25,328,-0.67,0.59,8.54,-0.05,0.06,-0.04,16.88,1456.88,0,85010,-1.105946,36.97588,20230601,0
2023-08-01-15:50:25,329,-0.84,0.75,9.62,-0.05,0.09,-0.02,16.21,1456.21,-0.01,85011,-1.105946,36.97588,20230601,0
2023-08-01-15:50:25,330,-0.64,0.83,9.94,0,0.06,-0.01,16.21,1456.21,0,85015,-1.105946,36.97588,20230601,0
2023-08-01-15:50:25,331,-0.89,1.03,10.69,-0.09,-0.05,-0.01,16.11,1456.11,0,85006,-1.105946,36.97588,20230601,0
2023-08-01-15:50:26,332,-1.14,0.72,10.3,-0.09,-0.03,-0.01,17.55,1457.55,0.01,85001,-1.105937333,36.97588417,12502100,0
2023-08-01-15:50:26,333,-0.95,0.83,10.89,-0.03,-0.02,-0.02,17.74,1457.74,0,85000,-1.105937333,36.97588417,12502100,0
2023-08-01-15:50:26,334,-0.94,0.87,10.91,0,0.01,-0.02,18.03,1458.03,0,84997,-1.105937333,36.97588417,20230601,0
2023-08-01-15:50:26,335,-0.65,1.12,11.22,-0.01,0.02,-0.01,17.74,1457.74,0,84988,-1.105937333,36.97588417,20230601,0
2023-08-01-15:50:26,336,-1.08,1.08,10.47,-0.09,-0.01,0.02,17.17,1457.17,-0.01,85004,-1.105937333,36.97588417,20230601,0
2023-08-01-15:50:26,337,-0.89,1.14,10.51,-0.08,0.01,0.08,17.26,1457.26,0,84995,-1.105937333,36.97588417,20230601,0
2023-08-01-15:50:27,338,-0.99,1.01,10.27,-0.08,0.05,0.35,18.61,1458.61,0,84983,-1.1059375,36.9758905,12502200,0
2023-08-01-15:50:27,339,-0.94,0.84,10.25,-0.1,0.06,0.43,18.7,1458.7,-0.01,84986,-1.1059375,36.9758905,20230601,0
2023-08-01-15:50:27,340,-0.92,0.79,10.29,-0.09,0.07,0.56,20.24,1460.24,0.04,84982,-1.1059375,36.9758905,20230601,0
2023-08-01-15:50:27,341,-0.83,0.61,10.38,-0.07,0.07,0.61,17.74,1457.74,-0.01,84976,-1.1059375,36.9758905,20230601,0
2023-08-01-15:50:27,342,-0.47,1.04,10.96,-0.19,0.08,0.68,17.65,1457.65,-0.02,84980,-1.1059375,36.9758905,20230601,0
2023-08-01-15:50:28,343,-0.83,0.84,10.27,-0.2,0.05,0.68,18.99,1458.99,0.02,84986,-1.105936833,36.97588917,12502300,0
2023-08-01-15:50:28,344,-0.83,0.6,10.11,-0.12,0.02,0.66,19.76,1459.76,0.01,85000,-1.105936833,36.97588917,12502300,0
2023-08-01-15:50:28,345,-1.27,0.68,10.47,-0.12,-0.02,0.68,19.57,1459.57,-0.01,84979,-1.105936833,36.97588917,20230601,0
2023-08-01-15:50:28,346,-1.29,0.66,11.26,-0.11,0.18,0.68,18.13,1458.13,-0.01,84983,-1.105936833,36.97588917,20230601,0
2023-08-01-15:50:28,347,-0.65,0.92,10.52,-0.03,-0.14,0.59,19.28,1459.28,0,84981,-1.105936833,36.97588917,20230601,0
2023-08-01-15:50:28,348,-1.26,0.71,11.28,-0.06,0.02,0.59,18.7,1458.7,-0.01,84979,-1.105936833,36.97588917,20230601,0
2023-08-01-15:50:29,349,-1.1,0.68,11.31,-0.16,0.26,0.53,17.55,1457.55,-0.01,84990,-1.105936,36.97588883,12502400,0
2023-08-01-15:50:29,350,-1.08,0.01,10.6,-0.1,0.1,0.07,18.61,1458.61,0,84995,-1.105936,36.97588883,12502400,0
2023-08-01-15:50:29,351,-0.67,0.01,10.46,-0.04,0.17,0.07,19.28,1459.28,0,84985,-1.105936,36.97588883,20230601,0
2023-08-01-15:50:29,352,-0.86,0.79,11.09,-0.1,0.09,-0.04,18.32,1458.32,-0.01,84987,-1.105936,36.97588883,20230601,0
2023-08-01-15:50:30,353,-0.74,0.54,10.14,-0.16,0.03,-0.05,19.76,1459.76,0.02,84985,-1.105936,36.97588883,20230601,0
2023-08-01-15:50:30,354,-0.29,0.42,10.97,-0.06,0.05,-0.03,18.61,1458.61,0,84995,-1.105946833,36.9758915,12502500,0
2023-08-01-15:50:30,355,-0.18,0.53,10.32,-0.05,-0.05,-0.03,19.18,1459.18,0,84995,-1.105946833,36.9758915,20230601,0
2023-08-01-15:50:30,356,-0.65,0.73,10.18,0.03,-0.16,-0.01,18.7,1458.7,0,84992,-1.105946833,36.9758915,20230601,0
2023-08-01-15:50:30,357,-0.6,0.59,11.43,-0.04,-0.31,0.02,18.99,1458.99,0,84984,-1.105946833,36.9758915,20230601,0
2023-08-01-15:50:30,358,-0.83,-0.05,10.67,-0.02,-0.19,0,19.76,1459.76,0.01,84980,-1.105946833,36.9758915,20230601,0
2023-08-01-15:50:30,359,-1.21,0.46,11.24,-0.02,0.12,-0.02,19.28,1459.28,0,84982,-1.105943333,36.97588967,12502600,0
2023-08-01-15:50:31,360,-1.29,0.36,10.89,-0.14,0.15,-0.03,19.66,1459.66,0.01,84983,-1.105943333,36.97588967,20230601,0
2023-08-01-15:50:31,361,-0.66,0.1,10.28,-0.03,-0.02,-0.01,18.99,1458.99,-0.01,84986,-1.105943333,36.97588967,20230601,0
2023-08-01-15:50:31,362,-0.48,0.36,10.99,0,-0.09,0.01,19.09,1459.09,0.01,84987,-1.105943333,36.97588967,20230601,0
2023-08-01-15:50:31,363,-0.69,0.39,11.33,-0.11,-0.01,-0.03,18.32,1458.32,0,84991,-1.105943333,36.97588967,20230601,0
2023-08-01-15:50:31,364,-0.6,0.32,10.99,-0.07,-0.04,-0.04,19.09,1459.09,0,84986,-1.105939333,36.97589717,12502700,0
2023-08-01-15:50:32,365,-0.28,0.6,11.21,-0.09,0.11,-0.03,19.28,1459.28,0,84980,-1.105939333,36.97589717,20230601,0
2023-08-01-15:50:32,366,-0.15,0.32,10.73,-0.05,0.02,-0.03,19.18,1459.18,0,84979,-1.105939333,36.97589717,12502700,0
2023-08-01-15:50:32,367,-0.19,0.2,10.3,-0.01,-0.02,-0.01,18.9,1458.9,-0.02,84987,-1.105939333,36.97589717,20230601,0
2023-08-01-15:50:32,368,-0.33,0.54,11.18,-0.06,0.07,-0.02,19.47,1459.47,0,84981,-1.105939333,36.97589717,20230601,0
2023-08-01-15:50:32,369,0.17,0.38,10.82,-0.09,-0.01,-0.02,20.05,1460.05,0,84976,-1.105939333,36.97589717,20230601,0
2023-08-01-15:50:33,370,-0.41,0.88,12.42,-0.03,0.12,-0.03,20.34,1460.34,0,84973,-1.105939333,36.97589717,20230601,0
2023-08-01-15:50:33,371,-0.35,0.34,11.66,-0.09,0.13,-0.02,20.05,1460.05,0,84973,-1.1059395,36.9759015,12502800,0
2023-08-01-15:50:33,372,-0.58,0.44,12.77,-0.03,0.05,-0.02,20.34,1460.34,0,84976,-1.1059395,36.9759015,20230601,0
2023-08-01-15:50:33,373,0.15,0.19,12.53,-0.04,0.02,-0.02,20.62,1460.62,0,84972,-1.1059395,36.9759015,20230601,0
2023-08-01-15:50:33,374,-0.17,0.09,12.27,-0.17,-0.05,-0.03,20.82,1460.82,0.01,84974,-1.1059395,36.9759015,20230601,0
2023-08-01-15:50:33,375,0.24,0.6,11.58,-0.06,-0.02,-0.06,21.1,1461.1,0,84963,-1.1059395,36.9759015,20230601,0
2023-08-01-15:50:34,376,-0.02,0.32,11.88,-0.03,-0.06,-0.02,22.16,1462.16,0,84958,-1.105939333,36.9759,12502900,0
2023-08-01-15:50:34,377,0.26,0.43,11.26,0,-0.05,-0.04,22.54,1462.54,0,84956,-1.105939333,36.9759,12502900,0
2023-08-01-15:50:34,378,-0.06,0.62,11.55,-0.02,-0.09,-0.06,21.58,1461.58,-0.01,84951,-1.105939333,36.9759,20230601,0
2023-08-01-15:50:34,379,0.29,0.39,10.85,-0.02,-0.06,-0.04,22.26,1462.26,0,84951,-1.105939333,36.9759,20230601,0
2023-08-01-15:50:34,380,0.07,0.19,11.2,-0.05,-0.05,-0.02,22.93,1462.93,0.01,84946,-1.105939333,36.9759,20230601,0
2023-08-01-15:50:35,381,0.22,0.6,11.37,0.01,-0.01,-0.03,22.54,1462.54,0,84941,-1.105931667,36.9759075,12503000,0
2023-08-01-15:50:35,382,-0.02,0.51,11.5,-0.01,0.03,-0.04,23.6,1463.6,0,84939,-1.105931667,36.9759075,12503000,0
2023-08-01-15:50:35,383,0.51,0.46,11.47,-0.03,0.01,-0.03,23.22,1463.22,0,84940,-1.105931667,36.9759075,20230601,0
2023-08-01-15:50:35,384,0.38,0.13,11.39,-0.06,-0.03,0.01,24.27,1464.27,0.01,84938,-1.105931667,36.9759075,20230601,0
2023-08-01-15:50:35,385,0.68,0.89,11.35,0,-0.03,-0.03,24.08,1464.08,0.01,84929,-1.105931667,36.9759075,20230601,0
2023-08-01-15:50:36,386,0.47,0.42,10.37,-0.06,-0.17,-0.05,24.56,1464.56,0,84923,-1.105907833,36.97592767,12503100,0
2023-08-01-15:50:36,387,0.25,0.62,10.59,-0.07,-0.09,0,25.71,1465.71,0,84924,-1.105907833,36.97592767,12503100,0
2023-08-01-15:50:36,388,0.26,0.23,10.97,-0.03,0.06,-0.01,25.23,1465.23,0,84917,-1.105907833,36.97592767,20230601,0
2023-08-01-15:50:36,389,0.31,0.39,10.41,-0.02,0.09,-0.04,26,1466,0.01,84918,-1.105907833,36.97592767,20230601,0
2023-08-01-15:50:36,390,0.43,0.31,10.21,-0.03,-0.05,-0.03,26.87,1466.87,0.01,84911,-1.105907833,36.97592767,20230601,0
2023-08-01-15:50:37,391,0.4,0.32,10.68,-0.04,-0.05,-0.01,26.87,1466.87,0,84893,-1.105907833,36.97592767,20230601,0
2023-08-01-15:50:37,392,0.61,0.18,10.43,0,0.01,-0.03,28.5,1468.5,0.01,84895,-1.105907833,36.97592767,20230601,0
2023-08-01-15:50:37,393,1.18,0.43,10.74,-0.07,0.08,-0.03,33.69,1473.69,0.04,84878,-1.105872,36.97595167,12503200,0
2023-08-01-15:50:37,394,0.48,0.29,10.76,-0.08,0.11,-0.02,27.25,1467.25,-0.06,84886,-1.105872,36.97595167,20230601,0
2023-08-01-15:50:37,395,0.61,0.01,10.48,-0.08,0.03,-0.01,25.52,1465.52,-0.01,84913,-1.105872,36.97595167,20230601,0
2023-08-01-15:50:37,396,1.06,0.61,8.83,-0.11,0.06,-0.02,24.56,1464.56,-0.01,84924,-1.105872,36.97595167,20230601,0
2023-08-01-15:50:38,397,0.82,0.78,7.05,-0.03,0.13,-0.05,23.99,1463.99,0,84934,-1.105872,36.97595167,20230601,0
2023-08-01-15:50:38,398,0.66,0.35,7.79,-0.05,0.34,-0.07,25.91,1465.91,0.02,84925,-1.1058285,36.97598517,12503300,0
2023-08-01-15:50:38,399,0.32,0.03,8.25,-0.09,0.44,-0.06,25.14,1465.14,-0.01,84921,-1.1058285,36.97598517,20230601,0
2023-08-01-15:50:38,400,1.41,-0.47,12.26,-0.39,2.6,-0.33,26.67,1466.67,0,84905,-1.1058285,36.97598517,20230601,0
2023-08-01-15:50:39,401,3.14,1.64,13.21,0.04,0.46,-0.13,28.31,1468.31,0.01,84897,-1.1058285,36.97598517,20230601,0
2023-08-01-15:50:39,402,-1.06,0.31,11.78,0.11,0.01,0.02,29.17,1469.17,0.02,84889,-1.1058285,36.97598517,20230601,0
2023-08-01-15:50:39,403,-1.11,0.71,12.54,-0.06,0.23,0,28.5,1468.5,0,84886,-1.10578,36.97602167,12503400,0
2023-08-01-15:50:39,404,-0.64,0.5,12.5,-0.22,0.15,-0.07,28.31,1468.31,0,84890,-1.10578,36.97602167,12503400,0
2023-08-01-15:50:39,405,1.89,1.2,13.33,-0.17,-0.5,-0.04,28.98,1468.98,0.01,84883,-1.10578,36.97602167,20230601,0
2023-08-01-15:50:40,406,-0.17,0.65,11.83,-0.02,-0.93,0.02,29.65,1469.65,0.01,84880,-1.10578,36.97602167,20230601,0
2023-08-01-15:50:40,407,-1.02,0.49,11,0.07,-1.02,0.09,28.88,1468.88,-0.01,84885,-1.10578,36.97602167,20230601,0
2023-08-01-15:50:40,408,-1.47,0.31,10.36,0.16,-0.67,0.11,30.04,1470.04,0,84867,-1.10578,36.97602167,20230601,0
2023-08-01-15:50:40,409,-0.91,0.39,11.21,-0.13,0.27,0,30.61,1470.61,0.01,84871,-1.105725333,36.976064,12503500,0
2023-08-01-15:50:40,410,-0.48,0.23,10.93,-0.19,0.27,-0.03,30.9,1470.9,0.01,84868,-1.105725333,36.976064,20230601,0
2023-08-01-15:50:41,411,-0.69,0.47,14.02,0.06,0.17,0.02,30.52,1470.52,0.01,84864,-1.105725333,36.976064,20230601,0
2023-08-01-15:50:41,412,-0.39,0.94,13.7,0.08,-0.09,0.01,29.94,1469.94,0,84872,-1.105725333,36.976064,20230601,0
2023-08-01-15:50:41,413,-0.83,0.34,13.27,-0.16,-0.08,-0.02,30.23,1470.23,0,84863,-1.105667,36.9761115,12503600,0
2023-08-01-15:50:41,414,-0.43,0.29,12.27,-0.15,-0.08,-0.03,31,1471,0,84864,-1.105667,36.9761115,12503600,0
2023-08-01-15:50:41,415,-0.56,0.57,12.54,-0.01,-0.06,-0.04,31.67,1471.67,0.01,84857,-1.105667,36.9761115,20230601,0
2023-08-01-15:50:42,416,-0.51,0.25,11.84,-0.04,0.02,-0.04,32.34,1472.34,0.01,84856,-1.105667,36.9761115,20230601,0
2023-08-01-15:50:42,417,-0.63,0.43,11.63,-0.01,-0.05,-0.04,32.34,1472.34,0,84848,-1.105667,36.9761115,20230601,0
2023-08-01-15:50:42,418,-0.42,0.38,11.33,-0.05,-0.08,-0.03,32.92,1472.92,0,84840,-1.105608667,36.97614683,12503700,0
2023-08-01-15:50:42,419,-0.66,0.28,11.49,-0.07,-0.06,-0.04,33.31,1473.31,0.01,84834,-1.105608667,36.97614683,20230601,0
2023-08-01-15:50:42,420,-0.64,0.62,12.11,-0.05,-0.01,-0.03,34.75,1474.75,0.01,84838,-1.105608667,36.97614683,20230601,0
2023-08-01-15:50:42,421,-0.51,0.41,12.22,-0.02,-0.08,-0.01,34.94,1474.94,0,84815,-1.105608667,36.97614683,20230601,0
2023-08-01-15:50:43,422,-0.46,0.46,11.63,-0.04,-0.04,-0.04,35.71,1475.71,0,84815,-1.105608667,36.97614683,20230601,0
2023-08-01-15:50:43,423,-0.64,0.41,11.53,-0.08,0.02,-0.03,36.48,1476.48,0.01,84804,-1.105576833,36.976174,12503800,0
2023-08-01-15:50:43,424,-0.39,0.44,11.22,-0.08,0.06,-0.02,37.25,1477.25,0,84802,-1.105576833,36.976174,20230601,0
2023-08-01-15:50:43,425,-0.25,0.53,11.62,-0.07,0.08,-0.02,38.02,1478.02,0,84788,-1.105576833,36.976174,20230601,0
2023-08-01-15:50:43,426,-0.11,0.3,11.03,-0.02,0.03,-0.02,39.75,1479.75,0.01,84776,-1.105576833,36.976174,20230601,0
2023-08-01-15:50:44,427,-0.34,0.57,11.08,0,0.03,-0.03,39.94,1479.94,0,84769,-1.105576833,36.976174,20230601,0
2023-08-01-15:50:44,428,-0.42,0.31,10.99,-0.06,0.06,-0.02,41.48,1481.48,0.01,84761,-1.105576833,36.976174,20230601,0
2023-08-01-15:50:44,429,-0.28,0.32,10.9,-0.11,0.1,-0.04,41.58,1481.58,0.01,84750,-1.105562833,36.97618617,12503900,0
2023-08-01-15:50:44,430,-0.43,0.42,10.69,0.01,0.07,-0.02,42.15,1482.15,0,84746,-1.105562833,36.97618617,12503900,0
2023-08-01-15:50:44,431,-0.33,0.27,10.48,0.02,0.08,0,43.12,1483.12,0.01,84741,-1.105562833,36.97618617,20230601,0
2023-08-01-15:50:44,432,-0.15,0.3,10.56,-0.14,-0.05,-0.05,44.17,1484.17,0,84735,-1.105562833,36.97618617,20230601,0
2023-08-01-15:50:45,433,-0.24,0.33,10.79,-0.12,-0.08,-0.04,44.27,1484.27,0,84726,-1.105562833,36.97618617,20230601,0
2023-08-01-15:50:45,434,-0.23,0.23,11.09,-0.06,-0.05,-0.03,45.33,1485.33,0,84714,-1.105550833,36.976192,12504000,0
2023-08-01-15:50:45,435,-0.39,0.29,10.96,-0.01,-0.08,-0.03,46.2,1486.2,0,84706,-1.105550833,36.976192,12504000,0
2023-08-01-15:50:45,436,0.12,0.17,10.96,-0.04,-0.05,-0.02,47.45,1487.45,0,84696,-1.105550833,36.976192,20230601,0
2023-08-01-15:50:45,437,-0.17,0.25,10.5,-0.04,-0.08,-0.03,47.93,1487.93,0,84683,-1.105550833,36.976192,20230601,0
2023-08-01-15:50:46,438,-0.38,0.15,10.89,-0.05,-0.1,-0.03,49.18,1489.18,0.01,84676,-1.105550833,36.976192,20230601,0
2023-08-01-15:50:46,439,-0.28,0.26,10.71,-0.08,0.09,-0.02,49.95,1489.95,0.01,84668,-1.105542,36.97620167,12504100,0
2023-08-01-15:50:46,440,-0.04,0.09,10.38,-0.07,0,-0.03,50.53,1490.53,0,84659,-1.105542,36.97620167,12504100,0
2023-08-01-15:50:46,441,-0.58,0.07,10.74,-0.04,0.02,-0.01,51.49,1491.49,0.01,84648,-1.105542,36.97620167,20230601,0
2023-08-01-15:50:46,442,-0.51,0.16,11.24,-0.06,0.06,-0.02,52.36,1492.36,0,84644,-1.105542,36.97620167,20230601,0
2023-08-01-15:50:47,443,0.05,0.01,10.62,-0.07,0.06,-0.03,52.36,1492.36,0,84635,-1.105542,36.97620167,20230601,0
2023-08-01-15:50:47,444,-0.06,0,10.57,-0.09,0.04,-0.03,53.32,1493.32,0.01,84633,-1.105529,36.97621533,12504200,0
2023-08-01-15:50:47,445,0.14,0.26,10.5,-0.07,-0.06,-0.04,54.09,1494.09,0.01,84619,-1.105529,36.97621533,20230601,0
2023-08-01-15:50:47,446,0.12,0.1,10.66,-0.07,0.01,-0.02,54.96,1494.96,0.01,84618,-1.105529,36.97621533,20230601,0
2023-08-01-15:50:48,447,-0.16,0.03,10.61,-0.05,-0.04,-0.03,55.34,1495.34,0,84611,-1.105529,36.97621533,20230601,0
2023-08-01-15:50:48,448,-0.11,0.08,10.86,-0.03,-0.03,-0.02,56.79,1496.79,0.01,84599,-1.105510667,36.97623017,12504300,0
2023-08-01-15:50:48,449,-0.06,0.32,11,0,-0.05,-0.02,57.85,1497.85,0.01,84582,-1.105510667,36.97623017,12504300,0
2023-08-01-15:50:48,450,-0.11,0.07,10.44,-0.05,0.02,-0.02,57.85,1497.85,0,84577,-1.105510667,36.97623017,20230601,0
2023-08-01-15:50:48,451,-0.36,-0.09,10.82,-0.02,0.02,-0.01,58.52,1498.52,0,84584,-1.105510667,36.97623017,20230601,0
2023-08-01-15:50:48,452,-0.16,-0.23,9.9,0.04,-0.23,-0.03,57.85,1497.85,0,84576,-1.105510667,36.97623017,20230601,0
2023-08-01-15:50:49,453,-0.18,-0.27,9.55,-0.04,-0.21,-0.05,58.72,1498.72,0,84574,-1.105510667,36.97623017,20230601,0
2023-08-01-15:50:49,454,-0.05,-0.16,9.62,-0.02,-0.19,-0.06,59.58,1499.58,0,84570,-1.105510667,36.97623017,20230601,0
2023-08-01-15:50:49,455,0.68,-0.01,7.64,-0.06,-0.15,-0.06,58.62,1498.62,-0.01,84567,-1.105487833,36.97624733,12504400,0
2023-08-01-15:50:49,456,0.21,0.03,7.23,-0.05,-0.18,-0.05,59.49,1499.49,0,84556,-1.105487833,36.97624733,20230601,0
2023-08-01-15:50:49,457,0.1,-0.27,6.85,-0.08,0.01,-0.03,54.86,1494.86,-0.02,84601,-1.105487833,36.97624733,20230601,0
2023-08-01-15:50:50,458,-0.01,0.11,7.32,0.02,0.13,-0.03,56.98,1496.98,0.02,84599,-1.105487833,36.97624733,20230601,0
2023-08-01-15:50:50,459,0.07,-0.11,8.1,-0.03,0.05,-0.03,56.69,1496.69,-0.01,84589,-1.105487833,36.97624733,20230601,0
2023-08-01-15:50:50,460,0.06,0.09,9.49,-0.02,0.15,-0.01,56.98,1496.98,0,84595,-1.105461833,36.9762645,12504500,0
2023-08-01-15:50:50,461,-0.48,0.3,10.27,-0.02,0.25,-0.06,57.75,1497.75,-0.01,84582,-1.105461833,36.9762645,20230601,0
2023-08-01-15:50:50,462,-1.07,-0.19,10.37,-0.05,0.42,-0.06,57.75,1497.75,0,84589,-1.105461833,36.9762645,20230601,0
2023-08-01-15:50:51,463,-8.49,-0.23,11.1,-0.27,2.39,-0.2,57.75,1497.75,0,84582,-1.105461833,36.9762645,20230601,0
2023-08-01-15:50:51,464,-1.24,-0.56,14.62,0.49,0.19,0.13,57.85,1497.85,0,84580,-1.105434333,36.97628183,12504600,0
2023-08-01-15:50:51,465,-1.05,-0.29,13.77,0.1,0.12,0.08,58.14,1498.14,-0.01,84586,-1.105434333,36.97628183,20230601,0
2023-08-01-15:50:51,466,-1.5,0.27,10.47,-0.27,-1.03,-0.03,58.72,1498.72,0.01,84574,-1.105434333,36.97628183,20230601,0
2023-08-01-15:50:51,467,-1.42,0.25,10.03,-0.12,-0.66,-0.06,59.58,1499.58,0.01,84577,-1.105434333,36.97628183,20230601,0
2023-08-01-15:50:51,468,-1.43,0.13,11.11,0.03,0.03,0.03,58.33,1498.33,0,84571,-1.105434333,36.97628183,20230601,0
2023-08-01-15:50:51,469,-1.28,-0.03,10.97,-0.01,0.06,0.01,59.49,1499.49,0.02,84565,-1.105403833,36.97629967,12504700,0
2023-08-01-15:50:52,470,-0.59,0.24,11.23,-0.07,-0.11,0.01,59.87,1499.87,0,84548,-1.105403833,36.97629967,12504700,0
2023-08-01-15:50:52,471,-0.56,0.29,10.42,-0.11,-0.18,-0.01,60.36,1500.36,-0.01,84551,-1.105403833,36.97629967,20230601,0
2023-08-01-15:50:52,472,-0.28,0.15,10.96,-0.02,0.09,0.02,62.09,1502.09,0.02,84566,-1.105403833,36.97629967,20230601,0
2023-08-01-15:50:52,473,-1.44,0.06,10.8,-0.09,-0.05,-0.03,58.33,1498.33,-0.01,84569,-1.105403833,36.97629967,20230601,0
2023-08-01-15:50:53,474,-1.06,-0.06,11.18,-0.04,0.09,0,58.81,1498.81,0,84567,-1.105369333,36.9763215,12504800,0
2023-08-01-15:50:53,475,-0.11,0.46,10.7,-0.03,-0.28,0.01,60.45,1500.45,0,84575,-1.105369333,36.9763215,12504800,0
2023-08-01-15:50:53,476,-0.08,-0.08,10.68,0,-0.33,0.01,57.18,1497.18,-0.05,84579,-1.105369333,36.9763215,20230601,0
2023-08-01-15:50:53,477,-0.59,0.32,11.25,0.03,-0.2,0.05,57.75,1497.75,0,84568,-1.105369333,36.9763215,20230601,0
2023-08-01-15:50:53,478,-0.38,0.03,11.31,-0.12,-0.26,0,57.66,1497.66,0,84576,-1.105369333,36.9763215,20230601,0
2023-08-01-15:50:54,479,-0.4,0.22,10.72,-0.09,-0.28,0.01,58.52,1498.52,0.01,84583,-1.105369333,36.9763215,20230601,0
2023-08-01-15:50:54,480,-1.26,0.14,10.93,0.02,0.01,-0.02,57.75,1497.75,-0.01,84579,-1.105338167,36.976349,12504900,0
2023-08-01-15:50:54,481,-0.85,0.28,11.14,-0.03,0.07,-0.02,58.62,1498.62,0,84569,-1.105338167,36.976349,20230601,0
2023-08-01-15:50:54,482,-0.63,0.04,11.28,-0.06,0.09,-0.02,58.72,1498.72,-0.01,84571,-1.105338167,36.976349,20230601,0
2023-08-01-15:50:55,483,-0.33,0.22,11.2,-0.13,0.13,-0.04,58.81,1498.81,0.01,84573,-1.105338167,36.976349,20230601,0
2023-08-01-15:50:55,484,0.02,0.17,10.96,-0.01,-0.01,-0.02,57.85,1497.85,0,84574,-1.105338167,36.976349,20230601,0
2023-08-01-15:50:55,485,0.26,0.03,10.8,-0.04,0,-0.04,58.52,1498.52,0,84571,-1.105318667,36.9763635,12505000,0
2023-08-01-15:50:55,486,-0.06,0.52,10.81,-0.05,-0.2,-0.04,59.1,1499.1,0,84571,-1.105318667,36.9763635,12505000,0
2023-08-01-15:50:55,487,0.23,0.09,10.7,-0.05,-0.1,-0.05,59.68,1499.68,0.01,84573,-1.105318667,36.9763635,20230601,0
2023-08-01-15:50:55,488,0.19,-0.2,10.99,-0.08,-0.02,-0.04,59.49,1499.49,0,84558,-1.105318667,36.9763635,20230601,0
2023-08-01-15:50:56,489,-0.1,0.31,10.96,-0.04,-0.1,-0.04,59.01,1499.01,-0.01,84561,-1.105318667,36.9763635,20230601,0
2023-08-01-15:50:56,490,0.07,0.58,10.59,-0.07,-0.07,-0.04,59.78,1499.78,0,84564,-1.105318667,36.9763635,20230601,0
2023-08-01-15:50:56,491,0.4,0.23,10.93,-0.04,-0.11,-0.01,59.87,1499.87,0,84561,-1.105311833,36.976366,12505100,0
2023-08-01-15:50:56,492,0.17,-0.13,10.48,-0.07,-0.12,-0.01,59.49,1499.49,-0.01,84563,-1.105311833,36.976366,20230601,0
2023-08-01-15:50:57,493,0.44,0.09,10.92,-0.09,0.06,-0.02,59.87,1499.87,-0.01,84561,-1.105311833,36.976366,20230601,0
2023-08-01-15:50:57,494,0.31,0.22,10.99,-0.09,0.08,-0.03,60.07,1500.07,0,84558,-1.105311833,36.976366,20230601,0
2023-08-01-15:50:57,495,0.32,0.22,11.03,-0.01,0.08,-0.03,60.16,1500.16,0,84560,-1.105311833,36.976366,20230601,0
2023-08-01-15:50:57,496,0.55,0.04,11.32,-0.05,0.01,-0.04,60.36,1500.36,0.01,84556,-1.1053055,36.976372,12505200,0
2023-08-01-15:50:57,497,0.59,-0.04,10.94,-0.07,-0.05,-0.03,60.64,1500.64,0,84553,-1.1053055,36.976372,20230601,0
2023-08-01-15:50:58,498,0.42,0.18,11.01,-0.03,0.06,-0.03,60.26,1500.26,0,84555,-1.1053055,36.976372,20230601,0
2023-08-01-15:50:58,499,1.15,0.13,10.71,-0.03,0,-0.03,60.55,1500.55,0,84556,-1.1053055,36.976372,20230601,0
2023-08-01-15:50:58,500,0.82,-0.16,10.5,-0.02,-0.1,-0.03,60.93,1500.93,0,84555,-1.1053055,36.976372,20230601,0
2023-08-01-15:50:59,501,1.36,-0.29,10.53,-0.04,-0.01,-0.02,60.36,1500.36,0,84551,-1.105286333,36.97638467,12505300,0
2023-08-01-15:50:59,502,1.22,0.43,10.85,-0.06,0.05,-0.03,60.55,1500.55,0,84553,-1.105286333,36.97638467,20230601,0
2023-08-01-15:50:59,503,1.25,0.01,10.73,-0.02,-0.09,-0.03,59.97,1499.97,0,84555,-1.105286333,36.97638467,20230601,0
2023-08-01-15:50:59,504,0.93,-0.23,10.91,-0.04,0.08,-0.01,59.97,1499.97,0,84556,-1.105286333,36.97638467,20230601,0
2023-08-01-15:51:00,505,1.01,0.14,11.06,-0.07,0.03,-0.03,60.93,1500.93,0.01,84550,-1.105262333,36.97640117,12505400,0
2023-08-01-15:51:00,506,1.11,0.12,10.97,-0.06,0.04,-0.03,60.45,1500.45,0.01,84551,-1.105262333,36.97640117,20230601,0
2023-08-01-15:51:00,507,0.95,-0.04,10.59,-0.01,0.03,-0.04,61.42,1501.42,0,84540,-1.105262333,36.97640117,12505400,0
2023-08-01-15:51:00,508,0.73,0.01,10.61,-0.06,0.06,-0.03,60.16,1500.16,-0.01,84555,-1.105262333,36.97640117,20230601,0
2023-08-01-15:51:01,509,1.01,0.11,11.06,-0.05,0.05,-0.03,61.13,1501.13,0.01,84551,-1.105262333,36.97640117,20230601,0
2023-08-01-15:51:01,510,0.82,-0.22,10.6,-0.05,0.07,-0.01,61.71,1501.71,0.01,84548,-1.105262333,36.97640117,20230601,0
2023-08-01-15:51:01,511,1,-0.3,11.06,-0.04,0,0,60.55,1500.55,0,84557,-1.105217667,36.976432,12505500,0
2023-08-01-15:51:01,512,1.09,0.01,11.2,-0.07,0.07,-0.02,61.51,1501.51,-0.01,84538,-1.105217667,36.976432,20230601,0
2023-08-01-15:51:02,513,0.7,0.45,11.05,0,0.28,0.01,61.8,1501.8,0,84540,-1.105217667,36.976432,20230601,0
2023-08-01-15:51:02,514,1.31,-0.12,10.56,-0.12,0,-0.04,60.84,1500.84,0,84548,-1.105217667,36.976432,20230601,0
2023-08-01-15:51:02,515,1.18,0.3,10.89,-0.02,0.2,-0.05,60.26,1500.26,-0.01,84554,-1.105217667,36.976432,20230601,0
2023-08-01-15:51:02,516,1.69,0.17,10.83,-0.02,0.03,-0.07,59.3,1499.3,0,84556,-1.105165833,36.9764705,12505600,0
2023-08-01-15:51:03,517,0.63,0.44,11.11,0.06,0.17,-0.04,57.08,1497.08,-0.03,84540,-1.105165833,36.9764705,20230601,0
2023-08-01-15:51:03,518,0.1,0.06,11.52,-0.03,0.46,-0.05,55.44,1495.44,0,84600,-1.105165833,36.9764705,20230601,0
2023-08-01-15:51:03,519,0.79,0,10.92,-0.03,0.18,-0.04,55.73,1495.73,-0.01,84598,-1.105165833,36.9764705,20230601,0
2023-08-01-15:51:04,520,0.24,-0.23,11.07,0.02,0.16,-0.01,56.6,1496.6,0,84596,-1.105165833,36.9764705,20230601,0
2023-08-01-15:51:04,521,0.13,0.41,11.23,-0.04,0.1,-0.02,57.56,1497.56,0,84588,-1.105105333,36.97650633,12505700,0
2023-08-01-15:51:04,522,0.43,0.55,11.08,-0.09,0.15,-0.01,59.01,1499.01,0.01,84581,-1.105105333,36.97650633,20230601,0
2023-08-01-15:51:04,523,3.59,2.88,16.18,-0.19,0.39,0,58.72,1498.72,0,84572,-1.105105333,36.97650633,20230601,0
2023-08-01-15:51:05,524,-1.46,0.07,12.08,-0.1,-0.28,-0.05,58.81,1498.81,0,84577,-1.1050405,36.97655833,12505800,0
2023-08-01-15:51:05,525,-1.81,0.97,12.18,-0.27,-0.08,-0.09,58.81,1498.81,0.01,84557,-1.1050405,36.97655833,12505800,0
2023-08-01-15:51:05,526,-0.72,0.94,11.73,0.01,-0.75,0.01,59.2,1499.2,0.01,84572,-1.1050405,36.97655833,20230601,0
2023-08-01-15:51:06,527,-0.93,0.19,10.64,-0.1,-0.04,0.02,59.39,1499.39,0,84554,-1.1050405,36.97655833,20230601,0
2023-08-01-15:51:06,528,-0.84,0.23,10.75,-0.15,-0.09,0.01,60.36,1500.36,0.01,84555,-1.104969333,36.9766045,12505900,0
2023-08-01-15:51:06,529,-0.56,0.48,10.89,-0.01,-0.05,0.01,59.49,1499.49,-0.01,84559,-1.104969333,36.9766045,20230601,0
2023-08-01-15:51:06,530,-0.18,0.36,10.96,-0.07,-0.12,-0.03,59.1,1499.1,-0.01,84559,-1.104969333,36.9766045,20230601,0
2023-08-01-15:51:06,531,-0.77,0.27,9.88,-0.07,-0.25,-0.04,58.43,1498.43,-0.02,84564,-1.104969333,36.9766045,20230601,0
2023-08-01-15:51:07,532,-1.49,0.28,11.64,0.01,0.12,-0.02,59.1,1499.1,0,84571,-1.104897667,36.97666417,12510000,0
2023-08-01-15:51:07,533,-0.34,0.12,11.06,-0.1,-0.07,-0.03,57.85,1497.85,-0.02,84572,-1.104897667,36.97666417,12510000,0
2023-08-01-15:51:07,534,-0.68,-0.02,9.66,-0.1,-0.08,-0.03,59.39,1499.39,0,84558,-1.104897667,36.97666417,20230601,0
2023-08-01-15:51:08,535,-0.88,0.17,10.91,-0.02,-0.05,0.03,59.39,1499.39,0,84561,-1.104897667,36.97666417,20230601,0
2023-08-01-15:51:08,536,-1.16,0.37,10.78,-0.1,-0.1,0.1,59.2,1499.2,0,84573,-1.104836333,36.97671967,12510100,0
2023-08-01-15:51:08,537,-0.87,0.17,11.15,-0.04,-0.09,0.1,59.2,1499.2,0,84567,-1.104836333,36.97671967,12510100,0
2023-08-01-15:51:08,538,-0.7,0.23,11.05,-0.11,0.13,0.09,58.52,1498.52,0,84574,-1.104836333,36.97671967,20230601,0
2023-08-01-15:51:09,539,-1.19,0.29,10.74,0.02,0.18,0.02,58.52,1498.52,-0.01,84570,-1.104836333,36.97671967,20230601,0
2023-08-01-15:51:09,540,-0.96,0.14,11.03,-0.09,0.19,0.01,58.24,1498.24,0,84578,-1.104779,36.97675967,12510200,0
2023-08-01-15:51:09,541,-1.06,0.42,10.92,-0.06,0.04,0.13,58.43,1498.43,0.01,84576,-1.104779,36.97675967,20230601,0
2023-08-01-15:51:10,542,-0.98,0.38,10.68,-0.03,-0.09,0.32,57.66,1497.66,-0.02,84579,-1.104779,36.97675967,20230601,0
2023-08-01-15:51:10,543,-0.79,0.41,10.87,-0.1,-0.13,0.34,57.66,1497.66,0,84581,-1.104752333,36.976777,12510300,0
2023-08-01-15:51:10,544,-0.76,-0.02,10.78,-0.07,0.01,0.39,58.24,1498.24,0.01,84584,-1.104752333,36.976777,12510300,0
2023-08-01-15:51:10,545,-1.22,-0.19,10.52,-0.09,0,0.01,57.85,1497.85,-0.01,84579,-1.104752333,36.976777,20230601,0
2023-08-01-15:51:11,546,-1.08,0.06,10.6,-0.09,0.06,0.01,58.62,1498.62,0,84580,-1.104752333,36.976777,20230601,0
2023-08-01-15:51:11,547,-1.03,0.04,10.69,-0.03,-0.05,-0.03,58.62,1498.62,0,84573,-1.104743,36.97678067,12510400,0
2023-08-01-15:51:11,548,-1.14,-0.13,10.6,-0.02,0.04,-0.01,58.91,1498.91,0.01,84565,-1.104743,36.97678067,20230601,0
2023-08-01-15:51:12,549,-1.17,0.23,10.7,-0.07,0.07,-0.02,57.18,1497.18,0,84587,-1.104743,36.97678067,20230601,0
2023-08-01-15:51:12,550,-0.69,0.59,10.88,0.11,-0.06,-0.02,57.37,1497.37,0,84589,-1.104736333,36.97678033,12510500,0
2023-08-01-15:51:12,551,-0.4,0.07,10.92,0.12,0.05,0,57.37,1497.37,-0.01,84586,-1.104736333,36.97678033,12510500,0
2023-08-01-15:51:12,552,-0.68,-0.21,10.61,0.05,0.03,-0.01,56.79,1496.79,0,84586,-1.104736333,36.97678033,20230601,0
2023-08-01-15:51:12,553,-0.62,0.2,10.5,-0.01,-0.01,-0.01,56.89,1496.89,-0.01,84581,-1.104736333,36.97678033,20230601,0
2023-08-01-15:51:13,554,-0.74,0.17,10.78,0.02,-0.02,-0.03,58.33,1498.33,0.01,84583,-1.104736333,36.97678033,20230601,0
2023-08-01-15:51:13,555,-0.88,0.48,10.77,-0.08,0.01,-0.03,57.85,1497.85,0,84578,-1.104738333,36.976781,12510600,0
2023-08-01-15:51:13,556,-0.88,0.61,10.88,-0.06,0.04,-0.02,57.18,1497.18,0,84584,-1.104738333,36.976781,20230601,0
2023-08-01-15:51:13,557,-1.01,0.51,10.61,-0.04,0.02,-0.02,56.89,1496.89,0,84587,-1.104738333,36.976781,20230601,0
2023-08-01-15:51:14,558,-0.88,0.69,10.92,-0.07,0.02,-0.03,56.89,1496.89,0,84591,-1.104738333,36.976781,20230601,0
2023-08-01-15:51:14,559,-1.07,0.67,10.77,-0.05,-0.02,-0.02,56.21,1496.21,0,84597,-1.1047375,36.976783,12510700,0
2023-08-01-15:51:14,560,-0.89,0.45,10.87,-0.06,0.02,-0.03,56.21,1496.21,0,84601,-1.1047375,36.976783,20230601,0
2023-08-01-15:51:15,561,-0.94,0.87,10.9,-0.06,-0.03,-0.01,55.63,1495.63,-0.01,84598,-1.1047375,36.976783,20230601,0
2023-08-01-15:51:15,562,-1.22,0.68,10.51,0,-0.02,-0.01,56.6,1496.6,0.01,84603,-1.104737167,36.97678033,12510800,0
2023-08-01-15:51:15,563,-1.15,0.75,10.88,-0.01,-0.02,-0.02,55.54,1495.54,0,84592,-1.104737167,36.97678033,20230601,0
2023-08-01-15:51:15,564,-1.05,0.69,10.45,-0.03,-0.01,-0.02,55.34,1495.34,-0.02,84595,-1.104737167,36.97678033,20230601,0
2023-08-01-15:51:15,565,-0.89,0.92,10.8,-0.05,-0.02,-0.03,56.89,1496.89,0.01,84610,-1.104737833,36.97678867,12510900,0
2023-08-01-15:51:16,566,-1.04,0.81,10.7,-0.05,0.02,-0.03,57.08,1497.08,0.01,84602,-1.104737833,36.97678867,12510900,0
2023-08-01-15:51:16,567,-1,0.82,10.6,-0.06,-0.01,-0.03,56.4,1496.4,-0.02,84579,-1.104737833,36.97678867,20230601,0
2023-08-01-15:51:16,568,-0.91,1.03,10.95,-0.05,-0.03,-0.03,56.69,1496.69,-0.02,84597,-1.104737833,36.97678867,20230601,0
2023-08-01-15:51:16,569,-1.15,0.87,10.51,0.02,-0.06,-0.01,58.43,1498.43,0,84593,-1.104733667,36.9767885,12511000,0
2023-08-01-15:51:17,570,-0.67,0.89,10.69,-0.09,0.05,-0.02,58.14,1498.14,0.01,84572,-1.104733667,36.9767885,20230601,0
2023-08-01-15:51:17,571,-0.68,1.44,10.65,-0.05,0.05,-0.01,58.72,1498.72,0.01,84586,-1.104733667,36.9767885,20230601,0
2023-08-01-15:51:17,572,-0.98,0.92,10.95,-0.07,-0.07,-0.04,56.02,1496.02,-0.02,84587,-1.104732667,36.976772,12511100,0
2023-08-01-15:51:18,573,-1.47,1.06,10.39,-0.07,0.01,-0.02,58.52,1498.52,0,84605,-1.104732667,36.976772,12511100,0
2023-08-01-15:51:19,574,-1.4,1.39,10.67,0.01,-0.1,-0.04,56.02,1496.02,-0.01,84602,-1.104732667,36.976772,20230601,0
2023-08-01-15:51:20,575,-1.36,1,10.38,-0.14,-0.06,-0.02,54.77,1494.77,0.01,84606,-1.104732667,36.976772,20230601,0
2023-08-01-15:51:20,576,-1.24,1.34,10.73,-0.1,-0.16,-0.05,56.79,1496.79,0.01,84595,-1.104729333,36.976747,12511200,0
2023-08-01-15:51:20,577,-1.89,1.32,10.81,-0.1,0.02,-0.02,54.67,1494.67,-0.02,84578,-1.104729333,36.976747,12511200,0
2023-08-01-15:51:20,579,-1.06,0.97,10.11,-0.15,0.04,-0.04,54.48,1494.48,-0.04,84599,-1.104729333,36.976747,20230601,0
2023-08-01-15:51:20,578,-0.59,1.01,10.65,0.02,0,-0.02,54.96,1494.96,0,84611,-1.104729333,36.976747,20230601,0
2023-08-01-15:51:20,580,-0.38,0.9,10.03,-0.15,-0.08,-0.05,57.37,1497.37,0.03,84585,-1.104729333,36.976747,20230601,0
2023-08-01-15:51:20,581,-1.38,1.46,10.85,-0.17,-0.15,-0.05,56.98,1496.98,0,84589,-1.104719167,36.9767175,12511300,0
2023-08-01-15:51:20,582,-0.23,0.74,10.43,0.01,0.14,-0.01,58.04,1498.04,0,84585,-1.104719167,36.9767175,20230601,0
2023-08-01-15:51:20,583,-0.58,1.46,10.68,0.05,-0.12,-0.03,57.27,1497.27,-0.02,84583,-1.104719167,36.9767175,20230601,0
2023-08-01-15:51:21,584,-1,-3.34,11.74,-0.82,-0.19,-0.12,57.18,1497.18,-0.01,84581,-1.104714,36.97667567,12511400,0
2023-08-01-15:51:21,585,-2.02,-0.9,12.64,-3.01,0.21,-0.45,57.46,1497.46,0,84591,-1.104714,36.97667567,12511400,0
2023-08-01-15:51:21,586,-0.19,0.08,13,0.48,0.12,0.12,57.18,1497.18,0,84584,-1.104714,36.97667567,20230601,0
2023-08-01-15:51:21,587,-0.91,0.33,12.88,0.31,-0.17,0.06,58.52,1498.52,0,84582,-1.104714,36.97667567,20230601,0
2023-08-01-15:51:21,588,-0.82,0.57,12.04,0.13,-0.28,0.03,58.04,1498.04,0,84575,-1.104714,36.97667567,20230601,0
2023-08-01-15:51:21,589,-1.66,0.48,11.48,-0.12,-0.06,-0.04,57.46,1497.46,-0.01,84578,-1.104705833,36.976626,12511500,0
2023-08-01-15:51:22,590,-1.69,2.46,11.47,0.12,0.13,-0.01,57.75,1497.75,0,84588,-1.104705833,36.976626,20230601,0
2023-08-01-15:51:22,591,-0.8,0.01,11.09,0.55,0.09,0.05,57.46,1497.46,-0.01,84571,-1.104705833,36.976626,20230601,0
2023-08-01-15:51:22,592,-1,0.14,10.78,-0.01,0.04,-0.02,58.14,1498.14,0,84583,-1.104705833,36.976626,20230601,0
2023-08-01-15:51:23,593,-1.06,0.27,10.75,0.04,0,-0.02,60.45,1500.45,0.01,84551,-1.104695,36.9765705,12511600,0
2023-08-01-15:51:23,594,-1.08,0.06,10.71,0.08,0.03,0,59.01,1499.01,-0.01,84563,-1.104695,36.9765705,20230601,0
2023-08-01-15:51:23,595,-0.95,0.08,10.76,0.05,0.01,-0.01,62.86,1502.86,0,84551,-1.104695,36.9765705,20230601,0
2023-08-01-15:51:23,596,-0.73,0.28,10.95,0.01,-0.2,-0.03,62.67,1502.67,0,84550,-1.104695,36.9765705,20230601,0
2023-08-01-15:51:24,597,-0.71,0.19,10.94,0,-0.5,-0.01,59.87,1499.87,0,84555,-1.104683667,36.97651533,12511700,0
2023-08-01-15:51:24,598,-0.98,0.26,10.86,-0.03,-0.23,-0.01,60.55,1500.55,0.01,84559,-1.104683667,36.97651533,20230601,0
2023-08-01-15:51:24,599,-0.74,0,10.76,0,0.05,-0.03,61.03,1501.03,0.01,84548,-1.104683667,36.97651533,20230601,0
2023-08-01-15:51:25,600,-1.37,0.08,11.94,-0.04,0.08,-0.02,59.87,1499.87,-0.01,84559,-1.1046765,36.97645267,12511800,0
2023-08-01-15:51:25,601,-0.86,0.23,12.18,-0.04,0.05,-0.04,60.64,1500.64,0,84553,-1.1046765,36.97645267,12511800,0
2023-08-01-15:51:25,602,-0.56,0.04,12.53,0.03,-0.09,0,61.32,1501.32,0.01,84549,-1.1046765,36.97645267,20230601,0
2023-08-01-15:51:26,603,-0.39,-0.07,12.11,-0.05,-0.04,-0.04,61.51,1501.51,0,84539,-1.1046765,36.97645267,20230601,0
2023-08-01-15:51:26,604,-0.72,0.23,12.48,-0.04,0,-0.03,61.8,1501.8,0,84542,-1.1046765,36.97645267,20230601,0
2023-08-01-15:51:26,605,0.06,0.02,10.98,-0.07,-0.11,-0.05,62.09,1502.09,0,84535,-1.1046765,36.97645267,20230601,0
2023-08-01-15:51:26,606,0.31,0.14,10.18,-0.05,-0.32,-0.03,62.48,1502.48,0,84532,-1.104669667,36.9764085,12511900,0
2023-08-01-15:51:27,607,-0.29,-0.11,10.23,-0.02,-0.24,-0.01,62.28,1502.28,-0.01,84528,-1.104669667,36.9764085,20230601,0
2023-08-01-15:51:27,608,-0.6,-0.09,10.52,-0.06,-0.12,-0.01,62.38,1502.38,-0.01,84533,-1.104669667,36.9764085,20230601,0
2023-08-01-15:51:27,609,0.1,-0.18,10.86,-0.05,0.01,-0.03,63.54,1503.54,0,84528,-1.104669667,36.9764085,20230601,0
2023-08-01-15:51:27,610,0.5,-0.11,10.69,-0.02,-0.03,-0.03,63.63,1503.63,0,84525,-1.104666,36.97639083,12512000,0
2023-08-01-15:51:27,611,0.76,0.05,10.65,-0.05,-0.08,-0.03,63.83,1503.83,0,84519,-1.104666,36.97639083,20230601,0
2023-08-01-15:51:28,612,0.49,-0.07,10.78,-0.04,-0.02,-0.03,64.21,1504.21,0,84509,-1.104666,36.97639083,20230601,0
2023-08-01-15:51:28,613,0.69,-0.14,10.59,-0.05,-0.07,-0.02,64.5,1504.5,0,84513,-1.104664,36.97637617,12512100,0
2023-08-01-15:51:28,614,0.87,0.09,10.51,-0.04,-0.08,-0.02,64.31,1504.31,0,84521,-1.104664,36.97637617,20230601,0
2023-08-01-15:51:28,615,0.96,-0.17,10.75,-0.08,0.14,-0.03,64.89,1504.89,0,84514,-1.104664,36.97637617,20230601,0
2023-08-01-15:51:29,616,1.05,-0.19,10.67,-0.05,0.09,-0.01,65.08,1505.08,0.01,84501,-1.104649167,36.97636783,12512200,0
2023-08-01-15:51:29,617,0.99,-0.06,11.1,-0.03,0.04,-0.03,65.27,1505.27,-0.01,84500,-1.104649167,36.97636783,20230601,0
2023-08-01-15:51:29,618,1.26,-0.19,10.03,-0.02,-0.06,-0.03,65.95,1505.95,0,84503,-1.104649167,36.97636783,20230601,0
2023-08-01-15:51:29,619,0.89,-0.31,10.72,-0.04,0.08,0,66.14,1506.14,0,84498,-1.104649167,36.97636783,20230601,0
2023-08-01-15:51:30,620,1.41,-0.46,10.54,-0.06,0.04,-0.03,66.53,1506.53,0,84486,-1.1046235,36.97635967,12512300,0
2023-08-01-15:51:30,621,1.14,-0.03,10.89,-0.08,0.04,-0.02,65.76,1505.76,0,84493,-1.1046235,36.97635967,20230601,0
2023-08-01-15:51:30,622,1.4,-0.05,10.66,-0.06,0.06,-0.01,67.39,1507.39,0.01,84491,-1.1046235,36.97635967,20230601,0
2023-08-01-15:51:30,623,1.27,-0.03,10.47,-0.01,-0.11,-0.03,67.01,1507.01,0,84474,-1.104586,36.976356,12512400,0
2023-08-01-15:51:31,624,1.47,-0.18,10.29,-0.02,0.01,-0.03,68.26,1508.26,0.01,84487,-1.104586,36.976356,20230601,0
2023-08-01-15:51:31,625,1.64,0.16,10.34,-0.03,0.08,-0.04,67.39,1507.39,0,84489,-1.104586,36.976356,20230601,0
2023-08-01-15:51:31,626,1.5,0.27,9.89,-0.05,0.08,-0.02,68.46,1508.46,0.01,84472,-1.104544,36.97633983,12512500,0
2023-08-01-15:51:31,627,1.62,-0.01,9.98,-0.03,0.1,-0.01,68.94,1508.94,0.01,84463,-1.104544,36.97633983,20230601,0
2023-08-01-15:51:31,628,1.13,-0.24,10.02,-0.05,0.17,-0.02,68.75,1508.75,0,84464,-1.104544,36.97633983,12512500,0
2023-08-01-15:51:31,629,1.41,-0.02,10.62,-0.07,-0.09,-0.03,69.03,1509.03,-0.01,84458,-1.104544,36.97633983,20230601,0
2023-08-01-15:51:32,630,1.53,-0.27,10.47,-0.05,-0.02,-0.04,69.52,1509.52,0,84459,-1.104489333,36.97631283,12512600,0
2023-08-01-15:51:32,631,1.04,0.01,11.57,-0.05,0.58,-0.02,68.55,1508.55,0,84466,-1.104489333,36.97631283,20230601,0
2023-08-01-15:51:32,632,1.44,-0.21,11.46,-0.08,0.56,-0.05,67.2,1507.2,-0.01,84468,-1.104489333,36.97631283,20230601,0
2023-08-01-15:51:33,633,1.07,0.36,11.19,-0.01,0.42,-0.04,62.48,1502.48,-0.01,84525,-1.104402167,36.97630767,12512700,0
2023-08-01-15:51:33,634,1.26,0.19,11.51,-0.08,0.41,-0.04,62.19,1502.19,-0.01,84533,-1.104402167,36.97630767,20230601,0
2023-08-01-15:51:33,635,1.33,0.39,10.86,-0.05,0.16,-0.03,62.28,1502.28,-0.01,84527,-1.104402167,36.97630767,12512700,0
2023-08-01-15:51:33,636,0.73,-0.31,10.87,-0.03,0.28,-0.04,62.86,1502.86,0,84534,-1.104402167,36.97630767,20230601,0
2023-08-01-15:51:34,637,0.67,0.19,11.15,0,0.16,-0.04,63.34,1503.34,0.01,84541,-1.104402167,36.97630767,20230601,0
2023-08-01-15:51:34,638,3.08,0.6,16.78,0.33,1.19,0.05,62.96,1502.96,0,84533,-1.104308667,36.976303,12512800,0
2023-08-01-15:51:34,639,-0.31,-0.3,17.02,0.2,0.4,0.14,62.48,1502.48,-0.01,84529,-1.104308667,36.976303,12512800,0
2023-08-01-15:51:35,640,-1.02,0.27,11.75,-0.16,-0.52,-0.06,65.08,1505.08,0.01,84513,-1.104308667,36.976303,20230601,0
2023-08-01-15:51:35,641,-1.53,0.46,12.39,-0.16,-0.01,-0.05,65.08,1505.08,0,84505,-1.104308667,36.976303,20230601,0
2023-08-01-15:51:35,642,-1.47,0.32,12.03,-0.25,-0.05,-0.03,65.47,1505.47,0.01,84502,-1.104308667,36.976303,20230601,0
2023-08-01-15:51:35,643,-0.74,0.46,11.45,-0.14,-0.06,-0.06,65.27,1505.27,0.01,84505,-1.1041995,36.97630867,12512900,0
2023-08-01-15:51:36,644,-1.1,0.32,12.02,-0.06,0.02,-0.05,64.69,1504.69,0,84515,-1.1041995,36.97630867,20230601,0
2023-08-01-15:51:36,645,0.35,0.06,12.2,-0.17,-0.23,-0.06,63.92,1503.92,-0.01,84511,-1.1041995,36.97630867,20230601,0
2023-08-01-15:51:36,646,-1.84,-0.22,11.06,-0.09,-0.42,0.02,64.21,1504.21,0,84519,-1.1041995,36.97630867,20230601,0
2023-08-01-15:51:36,647,-1.18,-0.23,10.98,0.04,-0.21,0.04,63.83,1503.83,0,84522,-1.104071167,36.9763265,12513000,0
2023-08-01-15:51:36,648,-1.17,0,10.51,-0.03,-0.1,0.03,63.44,1503.44,0,84520,-1.104071167,36.9763265,12513000,0
2023-08-01-15:51:36,649,-0.73,0.22,11.3,-0.19,-0.12,-0.04,65.08,1505.08,0,84501,-1.104071167,36.9763265,20230601,0
2023-08-01-15:51:37,650,-0.54,-0.14,9.83,-0.2,-0.16,-0.07,65.47,1505.47,0.01,84511,-1.104071167,36.9763265,20230601,0
2023-08-01-15:51:37,651,-0.87,-0.1,10.63,-0.12,-0.14,-0.05,64.12,1504.12,0,84507,-1.103943167,36.976356,12513100,0
2023-08-01-15:51:37,652,-0.88,-0.16,10.75,-0.07,0.03,-0.02,64.6,1504.6,-0.01,84498,-1.103943167,36.976356,20230601,0
2023-08-01-15:51:38,653,-0.94,0.12,10.72,-0.01,0.04,-0.02,63.73,1503.73,-0.01,84517,-1.103943167,36.976356,20230601,0
2023-08-01-15:51:38,654,-1.02,0.12,10.95,-0.1,-0.13,-0.03,65.18,1505.18,-0.02,84508,-1.103943167,36.976356,20230601,0
2023-08-01-15:51:38,655,-0.88,-0.13,10.42,0.01,-0.1,-0.03,65.47,1505.47,0.02,84503,-1.103943167,36.976356,20230601,0
2023-08-01-15:51:38,656,-0.41,-0.48,9.99,-0.18,0.15,-0.03,67.2,1507.2,0.02,84506,-1.1038405,36.9763655,12513200,0
2023-08-01-15:51:39,657,-0.53,0.17,10.28,-0.02,0.09,-0.02,64.6,1504.6,0,84501,-1.1038405,36.9763655,20230601,0
2023-08-01-15:51:39,658,-0.16,-0.5,9.75,-0.09,0.05,-0.01,65.66,1505.66,0.01,84504,-1.1038405,36.9763655,20230601,0
2023-08-01-15:51:39,659,-0.21,-0.4,9.49,0.09,0.07,-0.01,65.37,1505.37,0,84495,-1.1038405,36.9763655,20230601,0
2023-08-01-15:51:39,660,-1.55,-0.11,11.54,0.04,0.33,0,65.66,1505.66,0,84494,-1.103750833,36.9763685,12513300,0
2023-08-01-15:51:40,661,-0.62,-0.08,10.82,-0.11,0.23,-0.01,64.41,1504.41,-0.01,84493,-1.103750833,36.9763685,20230601,0
2023-08-01-15:51:40,662,-1.44,-0.37,10.69,-0.01,0.1,-0.01,64.79,1504.79,-0.01,84502,-1.103750833,36.9763685,20230601,0
2023-08-01-15:51:40,663,-1.03,-0.2,10.83,0.08,-0.06,-0.03,65.66,1505.66,0.01,84499,-1.103681333,36.97636767,12513400,0
2023-08-01-15:51:40,664,-0.95,-0.57,11.05,-0.09,0.03,-0.03,65.37,1505.37,-0.01,84499,-1.103681333,36.97636767,12513400,0
2023-08-01-15:51:41,665,-1.27,-1.07,10.06,-0.07,-0.08,-0.03,66.14,1506.14,0.01,84504,-1.103681333,36.97636767,20230601,0
2023-08-01-15:51:41,666,-1.32,-0.77,11.11,0.04,0.07,-0.02,64.98,1504.98,-0.01,84493,-1.103681333,36.97636767,20230601,0
2023-08-01-15:51:41,667,-0.8,-0.68,10.66,-0.04,-0.05,-0.03,64.89,1504.89,0,84506,-1.103681333,36.97636767,20230601,0
2023-08-01-15:51:42,668,-0.76,-0.62,10.63,-0.14,0.08,-0.03,64.98,1504.98,0,84510,-1.103646,36.976373,12513500,0
2023-08-01-15:51:42,669,-0.89,-1.05,10.28,0,0.07,0,64.5,1504.5,-0.02,84508,-1.103646,36.976373,20230601,0
2023-08-01-15:51:42,670,-1.63,-0.51,11.7,-0.07,0.08,-0.02,64.98,1504.98,0.01,84492,-1.103646,36.976373,20230601,0
2023-08-01-15:51:43,671,-1.2,-0.81,11.6,-0.06,0.1,-0.01,63.34,1503.34,0,84494,-1.103623167,36.97638083,12513600,0
2023-08-01-15:51:43,672,-1.27,-1.14,10.91,-0.06,0.19,-0.01,65.37,1505.37,0.02,84516,-1.103623167,36.97638083,12513600,0
2023-08-01-15:51:43,673,-0.86,-0.76,10.43,-0.01,-0.04,-0.02,64.5,1504.5,-0.01,84502,-1.103623167,36.97638083,20230601,0
2023-08-01-15:51:43,674,-1.29,0.79,11.22,0.41,-0.02,0.04,66.82,1506.82,0.02,84510,-1.103623167,36.97638083,20230601,0
2023-08-01-15:51:43,675,-0.9,4.38,12.22,2.5,-0.05,0.32,64.12,1504.12,-0.02,84520,-1.103623167,36.97638083,20230601,0
2023-08-01-15:51:44,676,-1.19,-0.32,12.31,0.18,0.23,0,65.95,1505.95,0.01,84489,-1.103604667,36.9764055,12513700,0
2023-08-01-15:51:44,677,-0.67,-1.8,12.28,-0.36,-0.03,-0.03,63.63,1503.63,0,84503,-1.103604667,36.9764055,12513700,0
2023-08-01-15:51:44,678,-0.72,0.48,10.54,-0.68,0.01,-0.1,63.63,1503.63,-0.01,84516,-1.103604667,36.9764055,20230601,0
2023-08-01-15:51:44,679,-0.31,-0.16,10.57,0.12,-0.01,-0.06,64.41,1504.41,0,84521,-1.103612167,36.9764425,12513800,0
2023-08-01-15:51:45,680,-0.55,-0.25,10.43,-0.08,-0.25,-0.05,65.56,1505.56,0.02,84517,-1.103612167,36.9764425,20230601,0
2023-08-01-15:51:45,681,-0.8,0.22,10.76,-0.16,-0.08,-0.03,63.63,1503.63,0,84520,-1.103612167,36.9764425,20230601,0
2023-08-01-15:51:45,682,-1.04,0.24,10.63,-0.09,0.02,-0.02,64.02,1504.02,0,84520,-1.103612167,36.9764425,20230601,0
2023-08-01-15:51:45,683,-1.15,-0.42,11.26,-0.11,0.2,-0.01,64.89,1504.89,0,84507,-1.103612167,36.9764425,20230601,0
2023-08-01-15:51:46,684,-0.62,-0.14,11.19,-0.12,-0.09,-0.01,65.08,1505.08,0,84508,-1.103617667,36.9764805,12513900,0
2023-08-01-15:51:46,685,-1.89,-0.15,11.08,-0.07,-0.89,0.02,65.37,1505.37,0,84497,-1.103617667,36.9764805,20230601,0
2023-08-01-15:51:46,686,-0.95,0.21,11.71,-0.05,-0.19,-0.01,65.85,1505.85,0.01,84503,-1.103617667,36.9764805,20230601,0
2023-08-01-15:51:46,687,-0.71,-0.02,11.13,-0.06,-0.1,-0.01,65.85,1505.85,0,84503,-1.1036195,36.97652317,12514000,0
2023-08-01-15:51:47,688,-0.65,-0.03,11.04,-0.11,0.02,-0.03,65.85,1505.85,0,84502,-1.1036195,36.97652317,12514000,0
2023-08-01-15:51:47,689,-0.68,0.18,12.76,-0.02,0.18,-0.02,65.85,1505.85,0,84496,-1.1036195,36.97652317,20230601,0
2023-08-01-15:51:47,690,-0.54,0.15,12.94,-0.04,0.01,-0.03,67.11,1507.11,0.01,84492,-1.1036195,36.97652317,20230601,0
2023-08-01-15:51:47,691,-0.6,0.03,13.13,-0.04,0.04,-0.02,66.14,1506.14,0,84496,-1.1036195,36.97652317,20230601,0
2023-08-01-15:51:48,692,-0.27,0.16,12.55,-0.06,0,-0.04,66.91,1506.91,0.01,84488,-1.103621667,36.97656517,12514100,0
2023-08-01-15:51:48,693,-0.21,0.1,11.79,0,-0.02,-0.03,67.59,1507.59,0.01,84476,-1.103621667,36.97656517,20230601,0
2023-08-01-15:51:48,694,0.17,-0.13,11.37,-0.04,-0.01,-0.04,67.78,1507.78,0,84479,-1.103626,36.97657633,12514200,0
2023-08-01-15:51:48,695,0.48,0.23,11.84,-0.07,0.06,-0.03,68.84,1508.84,0,84466,-1.103626,36.97657633,12514200,0
2023-08-01-15:51:49,696,0.47,0.17,11.65,-0.02,-0.01,-0.03,69.13,1509.13,0,84461,-1.103626,36.97657633,20230601,0
2023-08-01-15:51:49,697,0.35,0.09,11.37,-0.05,-0.06,-0.04,68.65,1508.65,-0.01,84462,-1.103626,36.97657633,20230601,0
2023-08-01-15:51:49,698,0.46,0.1,11.31,-0.06,0.04,-0.02,69.13,1509.13,0,84456,-1.103626,36.97657633,20230601,0
2023-08-01-15:51:50,699,0.49,-0.07,11.18,-0.05,0.06,-0.02,69.42,1509.42,0,84459,-1.103631167,36.97657533,12514300,0
2023-08-01-15:51:50,700,0.78,0.19,10.98,-0.04,-0.09,-0.02,69.81,1509.81,0,84446,-1.103631167,36.97657533,20230601,0
2023-08-01-15:51:50,701,0.61,-0.16,10.89,-0.05,-0.09,-0.02,70.67,1510.67,-0.01,84443,-1.103631167,36.97657533,20230601,0
2023-08-01-15:51:50,702,0.4,0.18,10.85,0,-0.13,-0.01,71.93,1511.93,0,84443,-1.103634667,36.976576,12514400,0
2023-08-01-15:51:51,703,1.19,-0.33,10.67,-0.02,-0.13,-0.02,73.67,1513.67,0,84420,-1.103634667,36.976576,12514400,0
2023-08-01-15:51:51,704,1.01,-0.36,10.72,-0.05,0.13,0.01,74.15,1514.15,0,84407,-1.103634667,36.976576,20230601,0
2023-08-01-15:51:51,705,1.6,0.57,11.4,-0.02,-0.12,-0.05,74.63,1514.63,-0.01,84410,-1.103634667,36.976576,20230601,0
2023-08-01-15:51:52,706,1.49,0.32,11.24,-0.02,0.17,-0.01,75.21,1515.21,0,84401,-1.103634667,36.976576,20230601,0
2023-08-01-15:51:52,707,1.21,0.2,10.84,-0.02,0.21,-0.01,76.27,1516.27,0,84397,-1.103607833,36.97657033,12514500,0
2023-08-01-15:51:52,708,1.75,-0.25,10.74,-0.05,-0.26,-0.05,77.05,1517.05,0,84386,-1.103607833,36.97657033,20230601,0
2023-08-01-15:51:52,709,2.57,0.15,10.64,-0.05,-0.01,-0.03,77.62,1517.62,0,84377,-1.103607833,36.97657033,20230601,0
2023-08-01-15:51:52,710,2.4,0.02,10.59,-0.03,-0.04,-0.02,78.59,1518.59,0,84371,-1.103607833,36.97657033,20230601,0
2023-08-01-15:51:53,711,2.59,0.05,10.93,0,0.09,-0.01,78.01,1518.01,0,84374,-1.1035625,36.97656667,12514600,0
2023-08-01-15:51:53,712,1.08,0.06,10.82,0,-0.24,-0.04,77.24,1517.24,-0.01,84385,-1.1035625,36.97656667,12514600,0
2023-08-01-15:51:55,713,1.34,-0.51,10.95,-0.07,0.21,-0.01,79.17,1519.17,0,84365,-1.1035625,36.97656667,20230601,0
2023-08-01-15:51:55,714,1.26,-0.31,11.07,-0.12,0.09,0.02,80.91,1520.91,0,84354,-1.1035625,36.97656667,20230601,0
2023-08-01-15:51:55,715,0.96,0.41,10.05,-0.05,0.01,0,82.16,1522.16,0,84336,-1.103498667,36.976565,12514700,0
2023-08-01-15:51:55,716,0.64,-0.09,11.27,0.04,0.02,-0.02,82.94,1522.94,0,84323,-1.103498667,36.976565,12514700,0
2023-08-01-15:51:55,717,2.86,0.45,10.23,-0.01,-0.22,-0.05,83.23,1523.23,0.01,84327,-1.103498667,36.976565,20230601,0
2023-08-01-15:51:55,718,2.33,-0.07,10.64,-0.07,-0.13,-0.03,83.42,1523.42,0,84316,-1.103498667,36.976565,20230601,0
2023-08-01-15:51:55,719,2.12,0.12,10.81,-0.01,-0.09,-0.02,85.35,1525.35,0,84298,-1.1034165,36.97656967,12514800,0
2023-08-01-15:51:55,720,2.26,-0.26,9.88,-0.06,0.03,-0.01,85.74,1525.74,0,84297,-1.1034165,36.97656967,20230601,0
2023-08-01-15:51:55,721,2.35,-0.23,10.94,-0.11,-0.08,-0.04,85.64,1525.64,0,84296,-1.1034165,36.97656967,20230601,0
2023-08-01-15:51:56,722,2.55,-0.31,10.56,-0.09,0.02,-0.02,86.42,1526.42,0.01,84293,-1.103321667,36.9765815,12514900,0
2023-08-01-15:51:56,723,1.53,0.02,10.72,-0.04,-0.09,-0.03,86.8,1526.8,0,84284,-1.103321667,36.9765815,12514900,0
2023-08-01-15:51:56,724,1.71,-0.21,11.19,-0.08,0.13,-0.01,87.87,1527.87,0,84267,-1.103321667,36.9765815,20230601,0
2023-08-01-15:51:57,725,1.61,-0.7,10.98,-0.04,0.03,-0.01,89.03,1529.03,0.02,84269,-1.103239333,36.9765715,12515000,0
2023-08-01-15:51:57,726,1.17,-0.28,11.04,-0.09,0.11,0.01,89.6,1529.6,0.02,84262,-1.103239333,36.9765715,12515000,0
2023-08-01-15:51:57,727,2.03,-0.05,10.7,-0.02,0.14,-0.04,89.99,1529.99,0.01,84255,-1.103239333,36.9765715,20230601,0
2023-08-01-15:51:58,728,2.12,-0.41,10.34,-0.03,-0.01,-0.04,90.38,1530.38,0,84245,-1.103239333,36.9765715,20230601,0
2023-08-01-15:51:58,729,2.36,-0.15,10.87,-0.1,0.07,-0.02,90.86,1530.86,0,84238,-1.103142333,36.97657017,12515100,0
2023-08-01-15:51:58,730,2.84,0.11,9.99,-0.06,0.01,-0.05,91.25,1531.25,-0.01,84231,-1.103142333,36.97657017,12515100,0
2023-08-01-15:51:59,731,2.43,-0.11,9.83,-0.05,-0.11,-0.05,92.6,1532.6,0,84220,-1.103142333,36.97657017,20230601,0
2023-08-01-15:51:59,732,3.1,-0.53,9.09,-0.02,-0.1,-0.05,92.6,1532.6,0,84216,-1.103142333,36.97657017,20230601,0
2023-08-01-15:52:00,733,2.35,0.18,10.41,-0.05,-0.02,-0.03,93.67,1533.67,0,84217,-1.103026833,36.97658667,12515200,0
2023-08-01-15:52:00,734,2.12,-0.21,9.92,-0.02,-0.2,-0.04,97.44,1537.44,0,84180,-1.103026833,36.97658667,20230601,0
2023-08-01-15:52:00,735,2.85,-0.65,10.86,0.06,-0.09,0,100.73,1540.73,0.01,84151,-1.103026833,36.97658667,20230601,0
2023-08-01-15:52:00,736,1.57,-0.32,10.57,-0.09,-0.02,-0.04,103.83,1543.83,0.01,84098,-1.103026833,36.97658667,20230601,0
2023-08-01-15:52:01,737,2.44,-0.02,9.1,0.04,-0.02,-0.02,97.73,1537.73,0.01,84183,-1.102904667,36.9766025,12515300,0
2023-08-01-15:52:01,738,2.3,-0.04,7.43,-0.16,-0.02,-0.06,95.21,1535.21,-0.02,84187,-1.102904667,36.9766025,12515300,0
2023-08-01-15:52:02,739,0.41,-0.56,7.56,-0.06,0.59,-0.01,94.25,1534.25,-0.01,84196,-1.102904667,36.9766025,20230601,0
2023-08-01-15:52:03,740,1.64,0.23,10.38,-0.05,0.61,-0.04,94.34,1534.34,0,84198,-1.102904667,36.9766025,20230601,0
2023-08-01-15:52:03,741,1.15,0.43,10.68,-0.05,0.52,-0.07,98.31,1538.31,0.03,84154,-1.102904667,36.9766025,20230601,0
2023-08-01-15:52:04,742,-0.51,-0.09,13.44,0.07,0.07,0.11,96.57,1536.57,0,84156,-1.1027855,36.97662167,12515400,0
2023-08-01-15:52:05,743,-0.44,0,10.97,-0.07,0.07,-0.03,97.83,1537.83,0.01,84178,-1.1027855,36.97662167,12515400,0
2023-08-01-15:52:05,744,-0.57,0.3,11.77,-0.05,0.13,-0.03,95.7,1535.7,0,84184,-1.1027855,36.97662167,20230601,0
2023-08-01-15:52:06,745,-0.73,0.12,12.94,-0.12,0.06,-0.04,95.89,1535.89,0,84188,-1.1027855,36.97662167,20230601,0
2023-08-01-15:52:07,746,0.54,0.64,12.32,-0.01,-0.39,0,96.86,1536.86,0.02,84186,-1.102649667,36.9766365,12515500,0
2023-08-01-15:52:08,747,-1.41,-0.17,10.81,0.06,-0.45,0.08,97.34,1537.34,0.01,84183,-1.102649667,36.9766365,20230601,0
2023-08-01-15:52:10,748,-0.62,-0.08,11.05,-0.04,-0.08,0.01,97.05,1537.05,-0.01,84168,-1.102649667,36.9766365,20230601,0
2023-08-01-15:52:12,749,-1.02,-0.14,10.8,-0.13,-0.16,-0.02,96.28,1536.28,0,84188,-1.1025135,36.97664883,12515600,0
2023-08-01-15:52:14,750,-0.99,0.03,10.77,0.01,-0.04,-0.01,96.28,1536.28,0,84175,-1.1025135,36.97664883,20230601,0
2023-08-01-15:52:15,751,-1.13,0.11,10.6,-0.11,0.02,-0.04,95.6,1535.6,0,84185,-1.102383167,36.97666133,12515700,0
2023-08-01-15:52:16,752,-0.95,-0.16,10.43,-0.04,-0.04,-0.03,96.57,1536.57,0,84187,-1.102383167,36.97666133,12515700,0
2023-08-01-15:52:16,753,-0.79,-0.06,10.65,-0.01,0,-0.02,95.99,1535.99,0.01,84188,-1.102383167,36.97666133,20230601,0
2023-08-01-15:52:17,754,-0.91,-0.15,10.79,0.01,0.19,0,96.08,1536.08,0,84183,-1.102253333,36.97668317,12515800,0
2023-08-01-15:52:17,755,-0.93,-0.09,10.73,-0.03,0,-0.03,96.76,1536.76,0,84176,-1.102253333,36.97668317,12515800,0
2023-08-01-15:52:18,756,-1.18,-0.05,10.82,-0.03,0.05,-0.02,100.44,1540.44,0.01,84149,-1.102253333,36.97668317,20230601,0
2023-08-01-15:52:18,757,-0.54,0.03,10.64,-0.04,0.01,-0.03,99.47,1539.47,0,84126,-1.102125167,36.9767095,12515900,0
2023-08-01-15:52:18,758,-1.07,-0.01,10.95,-0.03,0.01,-0.03,102.95,1542.95,0.01,84127,-1.102125167,36.9767095,12515900,0
2023-08-01-15:52:19,759,-1.13,-0.06,10.95,-0.03,0,-0.02,102.57,1542.57,0.01,84132,-1.102125167,36.9767095,20230601,0
2023-08-01-15:52:19,760,-1.01,-0.6,11.12,-0.05,0,-0.03,104.31,1544.31,0.03,84128,-1.102028833,36.9767275,12520000,0
2023-08-01-15:52:19,761,-0.9,-1.22,11.09,-0.07,-0.03,-0.03,97.15,1537.15,-0.03,84149,-1.102028833,36.9767275,20230601,0
2023-08-01-15:52:20,762,-0.92,-2.85,10.22,-0.05,-0.07,-0.01,96.76,1536.76,0,84183,-1.102028833,36.9767275,20230601,0
2023-08-01-15:52:20,763,-0.52,-3.14,9.74,-0.04,-0.09,-0.03,95.5,1535.5,-0.01,84193,-1.101939167,36.976746,12520100,0
2023-08-01-15:52:20,764,-0.04,-3.24,10.37,-0.03,0.1,0,94.63,1534.63,0,84199,-1.101939167,36.976746,20230601,0
2023-08-01-15:52:20,765,-0.35,-3.45,10.58,-0.07,-0.01,-0.02,93.96,1533.96,0,84206,-1.1018825,36.97675033,12520200,0
2023-08-01-15:52:21,766,-0.98,-5.24,16.85,2.46,0.17,0.27,96.08,1536.08,0.02,84201,-1.101847833,36.9767695,12520300,0
2023-08-01-15:52:21,767,-1.04,-2.67,12.4,0.18,-0.09,-0.1,96.08,1536.08,-0.01,84183,-1.101847833,36.9767695,20230601,0
2023-08-01-15:52:21,768,-1.24,-0.6,11.63,0,-0.05,0,97.05,1537.05,0,84168,-1.101848667,36.9767955,12520400,0
2023-08-01-15:52:22,769,-1.17,-0.07,12,-0.02,0.01,-0.04,96.86,1536.86,0,84173,-1.101849167,36.9768095,12520500,0
2023-08-01-15:52:22,770,-1.39,-0.02,12.05,0.06,0.13,0.01,97.25,1537.25,0.01,84170,-1.101849167,36.9768095,12520500,0
2023-08-01-15:52:22,771,-0.57,-1.8,12.83,-0.18,-0.15,0.01,95.6,1535.6,-0.01,84176,-1.101836,36.97682383,12520600,0
2023-08-01-15:52:23,772,-1.43,1.01,10.85,-0.85,-0.32,-0.14,95.5,1535.5,0,84188,-1.101836,36.97682383,20230601,0
2023-08-01-15:52:23,773,-0.51,0.5,10.92,-0.36,-0.15,-0.03,94.83,1534.83,-0.01,84207,-1.101832,36.976829,12520700,0
2023-08-01-15:52:24,774,-1.56,-0.49,11.47,-0.07,0.29,0.01,95.99,1535.99,0.02,84177,-1.101832,36.976829,20230601,0
2023-08-01-15:52:24,775,0.83,0.57,11.39,-0.26,0.22,-0.06,95.21,1535.21,-0.02,84198,-1.101833167,36.9768755,12521000,0
2023-08-01-15:52:24,776,-0.44,-0.17,10.58,-0.04,-0.12,-0.02,96.76,1536.76,-0.03,84169,-1.101840167,36.97700433,12521200,0
2023-08-01-15:52:24,777,-0.53,-0.1,10.54,-0.21,0.14,-0.03,96.28,1536.28,0,84178,-1.101845833,36.9772015,12521400,0
2023-08-01-15:52:24,778,-0.57,-0.59,10.74,-0.12,-0.2,-0.05,95.7,1535.7,0,84187,-1.101845833,36.9772015,20230601,0
2023-08-01-15:52:25,779,-1.27,0.02,10.98,-0.12,0.23,-0.14,96.28,1536.28,-0.01,84187,-1.101865667,36.97744717,12521600,0
2023-08-01-15:52:25,780,-1.29,-0.32,11.48,-0.01,-0.06,-0.24,97.44,1537.44,0.01,84173,-1.101871667,36.97758983,12521700,0
2023-08-01-15:52:25,781,-0.16,-0.34,10.56,-0.09,-0.03,-0.12,98.02,1538.02,0,84172,-1.101871667,36.97758983,12521700,0
2023-08-01-15:52:25,782,0.1,0.02,10.98,0.14,-0.17,0.01,98.6,1538.6,0.01,84158,-1.101871667,36.97758983,20230601,0
2023-08-01-15:52:25,783,-1.53,-0.24,11.26,-0.02,-1.06,0.05,98.41,1538.41,0,84163,-1.101877,36.97771433,12521800,0
2023-08-01-15:52:26,784,-1.05,-0.04,12.02,-0.08,0.13,-0.02,98.99,1538.99,0,84151,-1.101877,36.97771433,20230601,0
2023-08-01-15:52:26,785,-0.48,-0.04,11.09,-0.05,0.08,-0.03,98.99,1538.99,0.01,84158,-1.101877,36.97771433,20230601,0
2023-08-01-15:52:27,786,-0.09,-0.17,11.03,-0.03,-0.17,-0.02,98.12,1538.12,0,84164,-1.1018765,36.9778215,12521900,0
2023-08-01-15:52:27,787,-0.47,-0.24,11.35,-0.04,-0.13,-0.01,97.34,1537.34,0,84173,-1.1018765,36.9778215,20230601,0
2023-08-01-15:52:27,788,0.02,-0.23,11.33,-0.09,0.13,-0.02,97.34,1537.34,-0.01,84171,-1.1018765,36.9778215,20230601,0
2023-08-01-15:52:27,789,0.31,-0.17,11.31,-0.09,0.06,-0.02,97.63,1537.63,0,84168,-1.101871667,36.97787617,12522000,0
2023-08-01-15:52:27,790,0.32,-0.13,11.3,-0.05,0.03,-0.03,97.92,1537.92,0.01,84173,-1.101871667,36.97787617,20230601,0
2023-08-01-15:52:28,791,0.62,-0.25,10.92,-0.02,-0.03,-0.03,98.02,1538.02,0.01,84166,-1.101871667,36.97787617,20230601,0
2023-08-01-15:52:28,792,1.17,-0.13,11.26,-0.03,-0.06,-0.02,97.63,1537.63,0,84169,-1.1018705,36.977932,12522100,0
2023-08-01-15:52:28,793,1.12,-0.28,10.75,-0.04,-0.02,-0.02,97.63,1537.63,0,84176,-1.1018705,36.977932,12522100,0
2023-08-01-15:52:28,794,1.24,-0.19,10.61,-0.08,0,-0.04,97.25,1537.25,0,84169,-1.1018705,36.977932,20230601,0
2023-08-01-15:52:29,795,1.13,-0.15,10.91,-0.05,0.03,-0.03,95.5,1535.5,-0.02,84173,-1.1018705,36.977932,20230601,0
2023-08-01-15:52:29,796,1.19,-0.27,11.03,-0.06,0.12,-0.02,95.99,1535.99,0,84169,-1.101874,36.97795417,12522200,0
2023-08-01-15:52:29,797,1.99,-0.22,10.69,-0.07,-0.05,-0.03,97.25,1537.25,0,84173,-1.101874,36.97795417,20230601,0
2023-08-01-15:52:29,798,1.13,-0.26,10.73,-0.03,0.06,-0.02,97.25,1537.25,-0.01,84165,-1.101874,36.97795417,20230601,0
2023-08-01-15:52:30,799,1.38,-0.24,11.17,-0.07,0.1,-0.01,99.47,1539.47,0.01,84140,-1.101872833,36.97797033,12522300,0
2023-08-01-15:52:30,800,1.93,-0.48,10.42,-0.06,0.14,-0.01,99.08,1539.08,0,84139,-1.101872833,36.97797033,20230601,0
2023-08-01-15:52:30,801,1.91,0.07,10.75,-0.09,0.12,-0.03,98.6,1538.6,0,84155,-1.101872833,36.97797033,20230601,0
2023-08-01-15:52:30,802,2.57,0,10.53,-0.02,0.1,-0.02,99.95,1539.95,0.01,84155,-1.10185,36.97798,12522400,0
2023-08-01-15:52:31,803,2.33,-0.43,10.22,-0.04,0.03,-0.02,98.31,1538.31,0,84162,-1.10185,36.97798,20230601,0
2023-08-01-15:52:31,804,2.5,-0.31,11.02,-0.14,0.12,0.01,97.15,1537.15,-0.02,84168,-1.10185,36.97798,20230601,0
2023-08-01-15:52:31,805,1.61,-0.67,11.57,-0.09,0.06,0.02,97.73,1537.73,0,84164,-1.10185,36.97798,20230601,0
2023-08-01-15:52:31,806,2.56,-0.51,9.75,-0.08,0.05,0,96.86,1536.86,0,84180,-1.1018145,36.97798417,12522500,0
2023-08-01-15:52:32,807,2.78,-0.8,11.02,-0.06,-0.17,-0.04,97.05,1537.05,0,84171,-1.1018145,36.97798417,20230601,0
2023-08-01-15:52:32,808,2.47,-0.8,10.31,-0.06,-0.06,-0.02,96.76,1536.76,-0.01,84173,-1.1018145,36.97798417,20230601,0
2023-08-01-15:52:32,809,2.76,-0.87,10.62,-0.06,-0.08,-0.03,97.92,1537.92,0.01,84162,-1.1018145,36.97798417,20230601,0
2023-08-01-15:52:33,810,2.57,-0.51,10.5,-0.09,-0.08,-0.05,96.86,1536.86,0,84172,-1.1017515,36.97798867,12522600,0
2023-08-01-15:52:33,811,2.64,-0.72,10.69,0.04,-0.07,0,95.31,1535.31,-0.01,84169,-1.1017515,36.97798867,20230601,0
2023-08-01-15:52:33,812,2.4,-0.75,10.83,-0.01,-0.06,-0.03,94.83,1534.83,-0.01,84189,-1.1017515,36.97798867,20230601,0
2023-08-01-15:52:33,813,2,-0.84,10.55,-0.09,-0.15,-0.03,96.28,1536.28,0,84179,-1.1017515,36.97798867,20230601,0
2023-08-01-15:52:33,814,2.58,-0.58,11.25,-0.06,-0.13,-0.02,94.15,1534.15,-0.01,84198,-1.101682,36.9780055,12522700,0
2023-08-01-15:52:34,815,3.96,0.04,11.07,-0.07,0.05,-0.05,94.83,1534.83,0.01,84195,-1.101682,36.9780055,20230601,0
2023-08-01-15:52:34,816,3.98,-0.26,9.32,-0.06,0.23,-0.01,95.31,1535.31,0.01,84195,-1.101682,36.9780055,20230601,0
2023-08-01-15:52:34,817,2.04,-0.45,10.79,0.02,0.25,-0.01,96.66,1536.66,0,84184,-1.101682,36.9780055,20230601,0
2023-08-01-15:52:34,818,3.02,-0.07,9.85,-0.02,0.06,-0.01,94.54,1534.54,-0.01,84193,-1.1015835,36.9780225,12522800,0
2023-08-01-15:52:35,819,3.13,-0.45,10.75,-0.1,0.13,-0.03,96.18,1536.18,-0.01,84183,-1.1015835,36.9780225,20230601,0
2023-08-01-15:52:35,820,2.49,0.28,10.49,-0.09,0.2,-0.04,95.79,1535.79,0,84188,-1.1015835,36.9780225,20230601,0
2023-08-01-15:52:35,821,3.32,0.34,11.32,0.03,-0.08,-0.02,95.6,1535.6,0,84191,-1.101482333,36.97804583,12522900,0
2023-08-01-15:52:36,822,2.38,-0.25,10.33,-0.04,-0.13,-0.06,95.7,1535.7,0,84188,-1.101482333,36.97804583,20230601,0
2023-08-01-15:52:36,823,2.44,-0.06,10.99,-0.01,-0.13,-0.05,96.86,1536.86,-0.01,84187,-1.101482333,36.97804583,20230601,0
2023-08-01-15:52:36,824,2.45,0.11,10.53,-0.05,0.06,-0.03,96.18,1536.18,-0.01,84177,-1.101482333,36.97804583,20230601,0
2023-08-01-15:52:36,825,3.9,-0.04,10.25,-0.05,0.26,0,98.02,1538.02,0.01,84178,-1.101482333,36.97804583,20230601,0
2023-08-01-15:52:36,826,3.19,0.14,10.1,-0.03,0.22,0.01,96.66,1536.66,0,84173,-1.1013585,36.97806867,12523000,0
2023-08-01-15:52:37,827,2.9,0.5,10.58,-0.12,0.43,0,96.57,1536.57,0.01,84178,-1.1013585,36.97806867,20230601,0
2023-08-01-15:52:37,828,2.89,0.21,10.41,-0.06,-0.27,-0.06,95.12,1535.12,-0.01,84188,-1.1013585,36.97806867,20230601,0
2023-08-01-15:52:37,829,2.38,-0.33,10.64,-0.05,-0.15,-0.03,97.63,1537.63,0,84176,-1.1013585,36.97806867,20230601,0
2023-08-01-15:52:38,830,2.52,0.05,10.81,-0.04,-0.08,-0.03,96.66,1536.66,0,84177,-1.101239,36.978091,12523100,0
2023-08-01-15:52:38,831,3,-0.25,10.2,-0.07,0.17,-0.01,96.95,1536.95,0.01,84171,-1.101239,36.978091,12523100,0
2023-08-01-15:52:38,832,3.28,0.18,10.54,-0.07,0.09,-0.03,94.83,1534.83,-0.03,84191,-1.101239,36.978091,20230601,0
2023-08-01-15:52:38,833,2.79,0.12,10.22,-0.07,0.1,-0.03,95.41,1535.41,0,84189,-1.101111,36.97812133,12523200,0
2023-08-01-15:52:39,834,2.63,-0.58,10.19,0,-0.28,-0.06,95.21,1535.21,-0.02,84187,-1.101111,36.97812133,12523200,0
2023-08-01-15:52:39,835,1.98,0,10.58,-0.05,0.17,-0.01,97.44,1537.44,0,84192,-1.101111,36.97812133,20230601,0
2023-08-01-15:52:39,836,2.28,-0.02,10.52,-0.06,0.26,0.01,96.86,1536.86,-0.01,84187,-1.101111,36.97812133,20230601,0
2023-08-01-15:52:40,837,1.6,-0.4,10.5,-0.08,0.05,0,95.89,1535.89,0,84180,-1.101111,36.97812133,20230601,0
2023-08-01-15:52:40,838,1.99,-0.39,10.56,-0.08,-0.03,-0.04,96.76,1536.76,0.01,84186,-1.100978167,36.978146,12523300,0
2023-08-01-15:52:40,839,3.19,-0.1,11.54,-0.05,0.1,-0.01,95.99,1535.99,0.01,84179,-1.100978167,36.978146,20230601,0
2023-08-01-15:52:40,840,3.87,0.12,9.41,0.05,-0.51,-0.09,96.76,1536.76,0,84188,-1.100978167,36.978146,20230601,0
2023-08-01-15:52:41,841,4.66,0.38,9.59,-0.04,-0.34,-0.07,96.86,1536.86,0,84166,-1.100978167,36.978146,20230601,0
2023-08-01-15:52:41,842,4.62,0.14,9.93,-0.01,-0.26,-0.06,95.79,1535.79,0,84191,-1.100840167,36.97817867,12523400,0
2023-08-01-15:52:41,843,2.9,0.22,10.73,0.02,-0.42,-0.07,95.6,1535.6,-0.01,84179,-1.100840167,36.97817867,20230601,0
2023-08-01-15:52:41,844,1.96,-0.05,10.49,-0.08,-0.02,-0.05,97.54,1537.54,-0.01,84175,-1.100840167,36.97817867,20230601,0
2023-08-01-15:52:42,845,2.61,0.02,10.24,-0.02,0.1,-0.02,98.21,1538.21,0.01,84175,-1.100697,36.97820633,12523500,0
2023-08-01-15:52:42,846,3.63,0.16,9.97,-0.02,0.05,-0.03,97.54,1537.54,0,84184,-1.100697,36.97820633,12523500,0
2023-08-01-15:52:42,847,2.86,0,10,-0.06,0.23,-0.01,96.18,1536.18,0.01,84184,-1.100697,36.97820633,20230601,0
2023-08-01-15:52:42,848,2.58,-0.05,10.69,-0.01,-0.04,-0.04,97.44,1537.44,0,84178,-1.100697,36.97820633,20230601,0
2023-08-01-15:52:43,849,2.47,-0.11,10.36,-0.06,-0.04,-0.03,97.73,1537.73,0,84164,-1.100553833,36.97823933,12523600,0
2023-08-01-15:52:43,850,2.63,-0.54,10.13,-0.05,-0.02,-0.01,96.76,1536.76,-0.01,84176,-1.100553833,36.97823933,20230601,0
2023-08-01-15:52:43,851,2.29,-0.01,10.85,-0.02,-0.06,-0.02,97.63,1537.63,0,84172,-1.100553833,36.97823933,20230601,0
2023-08-01-15:52:44,852,3.11,-0.11,10.04,-0.08,0.14,-0.02,99.86,1539.86,0.01,84161,-1.100553833,36.97823933,20230601,0
2023-08-01-15:52:44,853,2.37,-0.11,10.63,0.01,-0.07,-0.02,105.67,1545.67,0.03,84106,-1.100419,36.97826317,12523700,0
2023-08-01-15:52:44,854,2.97,-0.33,9.96,-0.05,-0.17,-0.02,106.54,1546.54,-0.08,84077,-1.100419,36.97826317,12523700,0
2023-08-01-15:52:44,855,2.7,-0.28,10.37,-0.1,-0.14,-0.01,104.21,1544.21,0.02,84088,-1.100419,36.97826317,20230601,0
2023-08-01-15:52:45,856,2.26,-0.44,10.17,0.05,-0.02,0,100.63,1540.63,0,84138,-1.100419,36.97826317,20230601,0
2023-08-01-15:52:45,857,2.73,-0.19,10.09,-0.1,-0.09,-0.02,98.12,1538.12,-0.02,84166,-1.100273,36.97828917,12523800,0
2023-08-01-15:52:45,858,1.62,-0.76,10.33,-0.04,0.25,-0.02,97.34,1537.34,-0.01,84173,-1.100273,36.97828917,20230601,0
2023-08-01-15:52:45,859,0.52,-0.63,14.86,-0.11,2.72,-0.18,95.31,1535.31,0,84196,-1.100273,36.97828917,20230601,0
2023-08-01-15:52:46,860,4.12,1.17,15.71,0.25,0.43,0.04,95.12,1535.12,0.01,84207,-1.100273,36.97828917,20230601,0
2023-08-01-15:52:46,861,1.15,0.15,11.63,-0.11,0.13,0,95.5,1535.5,0,84192,-1.100130833,36.97832083,12523900,0
2023-08-01-15:52:46,862,-0.47,-0.09,13.35,-0.05,-0.09,-0.04,95.31,1535.31,0,84177,-1.100130833,36.97832083,12523900,0
2023-08-01-15:52:46,863,-0.9,-0.05,11.17,-0.17,-0.06,-0.06,95.31,1535.31,-0.01,84180,-1.100130833,36.97832083,20230601,0
2023-08-01-15:52:46,864,-0.75,0.16,12.44,-0.02,0.14,-0.07,97.54,1537.54,0.02,84159,-1.100130833,36.97832083,20230601,0
2023-08-01-15:52:47,865,-0.72,0.51,12.17,-0.02,0.07,-0.06,97.63,1537.63,0,84183,-1.099983,36.9783585,12524000,0
2023-08-01-15:52:47,866,-0.71,-0.03,11.69,-0.12,-0.19,-0.06,100.05,1540.05,0.02,84161,-1.099983,36.9783585,20230601,0
2023-08-01-15:52:48,867,-0.99,0.04,12.3,-0.19,-0.28,-0.07,98.6,1538.6,-0.04,84144,-1.099983,36.9783585,20230601,0
2023-08-01-15:52:48,868,-0.1,0.52,12,-0.23,-0.27,-0.01,97.73,1537.73,0,84165,-1.099833667,36.9783965,12524100,0
2023-08-01-15:52:48,869,0.2,0.96,11.7,0.02,-0.71,0.03,97.54,1537.54,0,84174,-1.099833667,36.9783965,20230601,0
2023-08-01-15:52:48,870,-1.13,-0.57,10.26,-0.19,-0.94,-0.05,97.34,1537.34,-0.02,84167,-1.099833667,36.9783965,20230601,0
2023-08-01-15:52:48,871,-0.8,0.87,11.18,0.11,-0.68,0.07,97.92,1537.92,0.01,84168,-1.0996845,36.9784385,12524200,0
2023-08-01-15:52:49,872,-0.69,-0.41,11.19,0.04,-0.15,0.02,98.02,1538.02,0.01,84164,-1.0996845,36.9784385,12524200,0
2023-08-01-15:52:49,873,-0.87,-0.14,11.49,-0.1,-0.06,-0.02,98.02,1538.02,0,84158,-1.0996845,36.9784385,20230601,0
2023-08-01-15:52:49,874,-0.16,0.31,11.1,-0.02,-0.04,-0.02,98.7,1538.7,0,84169,-1.0996845,36.9784385,20230601,0
2023-08-01-15:52:49,875,-0.08,-0.13,11.12,-0.01,0.02,0,98.5,1538.5,0,84164,-1.0996845,36.9784385,20230601,0
2023-08-01-15:52:50,876,0.09,0.15,11.32,-0.04,0.06,-0.01,98.7,1538.7,-0.01,84162,-1.099532833,36.97848267,12524300,0
2023-08-01-15:52:50,877,-0.18,0.14,11.58,-0.07,0.05,-0.01,98.5,1538.5,0,84157,-1.099532833,36.97848267,20230601,0
2023-08-01-15:52:50,878,0,-0.06,11.2,-0.1,0.1,-0.02,98.21,1538.21,0,84163,-1.099532833,36.97848267,20230601,0
2023-08-01-15:52:50,879,0.34,0.28,11.24,-0.04,0.04,-0.02,98.7,1538.7,0.01,84164,-1.099420833,36.97851933,12524400,0
2023-08-01-15:52:51,880,0.52,0.35,11.2,-0.03,0.01,-0.03,98.5,1538.5,-0.02,84151,-1.099420833,36.97851933,20230601,0
2023-08-01-15:52:51,881,0.51,-0.02,11.17,-0.05,0.07,-0.05,97.63,1537.63,0,84169,-1.099420833,36.97851933,20230601,0
2023-08-01-15:52:51,882,0.34,-0.05,11.28,-0.04,0.09,-0.01,97.44,1537.44,0,84167,-1.099420833,36.97851933,20230601,0
2023-08-01-15:52:51,883,1.02,0.04,10.89,0.01,-0.21,-0.06,98.99,1538.99,-0.01,84152,-1.099342333,36.978538,12524500,0
2023-08-01-15:52:52,884,1.33,-0.17,10.76,-0.06,-0.01,-0.03,98.02,1538.02,0,84156,-1.099342333,36.978538,12524500,0
2023-08-01-15:52:52,885,0.91,-0.2,11.12,0.01,0.06,-0.01,97.63,1537.63,0.01,84179,-1.099342333,36.978538,20230601,0
2023-08-01-15:52:52,886,0.82,-0.18,11.75,-0.06,0.03,-0.04,97.54,1537.54,-0.01,84166,-1.099342333,36.978538,20230601,0
2023-08-01-15:52:53,887,1.61,0.21,10.54,-0.01,0.08,-0.02,97.73,1537.73,-0.02,84155,-1.0993155,36.97854267,12524600,0
2023-08-01-15:52:53,888,1.37,0.09,11.05,-0.03,0.18,0,97.83,1537.83,0,84165,-1.0993155,36.97854267,12524600,0
2023-08-01-15:52:53,889,1.33,0.09,11.16,-0.06,0.15,-0.01,99.28,1539.28,0.02,84167,-1.0993155,36.97854267,20230601,0
2023-08-01-15:52:53,890,1.55,0.23,10.49,-0.07,-0.09,-0.05,96.76,1536.76,-0.01,84169,-1.0993155,36.97854267,20230601,0
2023-08-01-15:52:54,891,2.03,0.13,10.68,0.02,-0.02,-0.03,93.86,1533.86,-0.02,84195,-1.099262333,36.97855767,12524700,0
2023-08-01-15:52:54,892,0.92,-0.09,11.19,-0.03,0.07,-0.01,92.89,1532.89,-0.01,84203,-1.099262333,36.97855767,20230601,0
2023-08-01-15:52:54,893,0.81,-0.26,10.7,-0.05,0.11,-0.01,95.41,1535.41,0.01,84221,-1.099262333,36.97855767,20230601,0
2023-08-01-15:52:55,894,1.59,-0.03,10.61,-0.09,-0.13,-0.04,92.51,1532.51,0,84222,-1.099262333,36.97855767,20230601,0
2023-08-01-15:52:55,895,1.74,-0.05,10.85,-0.03,0.06,0,93.67,1533.67,0,84206,-1.099185333,36.97858317,12524800,0
2023-08-01-15:52:55,896,2.12,-0.09,10.63,-0.02,0.01,-0.04,92.41,1532.41,-0.02,84217,-1.099185333,36.97858317,20230601,0
2023-08-01-15:52:55,897,2.44,0.78,10.97,0.06,-0.04,-0.01,93.38,1533.38,0.01,84215,-1.099185333,36.97858317,20230601,0
2023-08-01-15:52:56,898,2.85,0.13,10.31,0,0.01,-0.02,93.18,1533.18,-0.01,84215,-1.099097,36.978609,12524900,0
2023-08-01-15:52:56,899,2.67,0.42,11.12,-0.03,0.29,0.02,93.76,1533.76,-0.02,84195,-1.099097,36.978609,12524900,0
2023-08-01-15:52:58,900,3.81,0.6,10.48,-0.04,-0.06,-0.01,93.09,1533.09,0,84206,-1.099097,36.978609,20230601,0
2023-08-01-15:52:58,901,1.63,0.02,10.21,-0.12,0.28,-0.01,94.83,1534.83,0,84200,-1.099097,36.978609,20230601,0
2023-08-01-15:52:58,902,2.11,0.74,10.25,-0.06,0.32,0.01,93.38,1533.38,0,84205,-1.098992,36.97864133,12525000,0
2023-08-01-15:52:58,903,2.15,0.23,10.92,-0.02,-0.04,-0.02,91.54,1531.54,-0.01,84218,-1.098992,36.97864133,20230601,0
2023-08-01-15:52:58,904,3.03,-0.12,10.66,-0.06,-0.02,0,93.47,1533.47,0.01,84235,-1.098992,36.97864133,12525000,0
2023-08-01-15:52:58,905,3.94,0.36,9.94,-0.14,0.19,-0.01,92.31,1532.31,0,84224,-1.098992,36.97864133,20230601,0
2023-08-01-15:52:59,906,3.18,0.74,10.37,-0.08,0.24,0,92.99,1532.99,0.01,84225,-1.098992,36.97864133,20230601,0
2023-08-01-15:52:59,907,4.07,0.37,10.64,0.01,-0.09,-0.04,92.51,1532.51,-0.01,84212,-1.098879167,36.97867383,12525100,0
2023-08-01-15:53:00,908,3.05,0.14,9.8,-0.07,-0.03,-0.03,92.31,1532.31,-0.02,84209,-1.098879167,36.97867383,12525100,0
2023-08-01-15:53:00,909,4.03,0.68,10.09,-0.01,-0.41,-0.06,92.31,1532.31,0,84214,-1.098879167,36.97867383,20230601,0
2023-08-01-15:53:00,910,2.77,0.53,10.17,-0.03,-0.09,-0.03,91.93,1531.93,0,84224,-1.098879167,36.97867383,20230601,0
2023-08-01-15:53:00,911,2.19,0.51,9.62,-0.07,-0.11,-0.05,91.73,1531.73,0,84226,-1.0987585,36.97870833,12525200,0
2023-08-01-15:53:01,912,4.19,0.49,10.08,-0.08,0.04,0.01,92.6,1532.6,0,84218,-1.0987585,36.97870833,20230601,0
2023-08-01-15:53:01,913,2.59,0.4,10.83,0.02,-0.47,-0.08,92.8,1532.8,-0.01,84207,-1.0987585,36.97870833,20230601,0
2023-08-01-15:53:02,914,4.46,0.68,10.62,-0.03,-0.05,-0.04,93.38,1533.38,0.01,84216,-1.098628,36.9787535,12525300,0
2023-08-01-15:53:02,915,1.8,-0.32,10.83,-0.09,-0.01,-0.05,93.09,1533.09,0.01,84229,-1.098628,36.9787535,20230601,0
2023-08-01-15:53:02,916,3.96,0.12,10.37,-0.05,0.13,0,92.7,1532.7,0,84222,-1.098628,36.9787535,20230601,0
2023-08-01-15:53:03,917,4.34,0.55,9.78,0,0.11,0.01,92.31,1532.31,-0.01,84218,-1.098494167,36.97879767,12525400,0
2023-08-01-15:53:03,918,3.31,-0.03,9.81,-0.07,0.03,-0.04,91.64,1531.64,-0.01,84236,-1.098494167,36.97879767,20230601,0
2023-08-01-15:53:04,919,3.89,0.74,10.71,-0.04,-0.02,-0.03,91.54,1531.54,0,84240,-1.098494167,36.97879767,20230601,0
2023-08-01-15:53:04,920,3.77,0.17,9.81,-0.05,0.03,-0.01,90.57,1530.57,-0.01,84240,-1.098494167,36.97879767,20230601,0
2023-08-01-15:53:04,921,4.73,-0.35,9.33,-0.02,-0.07,-0.01,89.8,1529.8,0,84250,-1.098353167,36.97884617,12525500,0
2023-08-01-15:53:05,922,3.08,0.49,11.12,0.02,-0.02,-0.02,89.51,1529.51,0,84252,-1.098353167,36.97884617,12525500,0
2023-08-01-15:53:05,923,4.52,0.08,9.04,-0.03,-0.32,-0.05,89.32,1529.32,0.01,84253,-1.098353167,36.97884617,20230601,0
2023-08-01-15:53:05,924,2.61,0.34,10.49,-0.04,0.01,-0.02,90.19,1530.19,0,84247,-1.098218333,36.97889233,12525600,0
2023-08-01-15:53:06,925,3.16,0.57,10.24,0.07,-0.29,-0.07,89.8,1529.8,0,84249,-1.098218333,36.97889233,12525600,0
2023-08-01-15:53:06,926,3.62,0.44,10.27,0.01,-0.23,-0.04,89.51,1529.51,0,84253,-1.098218333,36.97889233,20230601,0
2023-08-01-15:53:06,927,4.1,0.62,10.69,-0.05,0.17,-0.02,89.03,1529.03,0,84263,-1.098072667,36.97894767,12525700,0
2023-08-01-15:53:07,928,3.68,0.41,10.17,-0.07,0.3,0,90.09,1530.09,0,84242,-1.098072667,36.97894767,20230601,0
2023-08-01-15:53:07,929,3.11,0.44,10.53,-0.13,0.23,-0.02,90.19,1530.19,0,84249,-1.097928167,36.97899417,12525800,0
2023-08-01-15:53:08,930,2.64,0.28,10.41,0,-0.04,0,89.51,1529.51,0,84264,-1.097928167,36.97899417,12525800,0
2023-08-01-15:53:08,931,2.8,-0.02,9.99,-0.02,-0.08,-0.03,89.32,1529.32,0,84255,-1.097928167,36.97899417,20230601,0
2023-08-01-15:53:08,932,3.56,0.71,10.79,-0.03,0.09,0,89.41,1529.41,-0.01,84258,-1.097788667,36.97903217,12525900,0
2023-08-01-15:53:09,933,2.67,0.17,10.18,-0.04,0.23,0.01,89.12,1529.12,0.01,84266,-1.097788667,36.97903217,20230601,0
2023-08-01-15:53:09,934,4.03,0.46,10.54,-0.06,0.03,0,88.93,1528.93,0,84255,-1.097788667,36.97903217,20230601,0
2023-08-01-15:53:10,935,3.64,0.05,10.18,-0.09,-0.12,-0.01,88.93,1528.93,0,84256,-1.097649,36.97906517,12530000,0
2023-08-01-15:53:10,936,4.45,0.57,10.35,-0.15,-0.13,-0.07,88.83,1528.83,0,84259,-1.097649,36.97906517,20230601,0
2023-08-01-15:53:10,937,3.89,-0.1,10.18,0,-0.27,-0.05,88.44,1528.44,0,84258,-1.097649,36.97906517,20230601,0
2023-08-01-15:53:11,938,4.49,0.46,9.46,-0.06,-0.12,-0.01,91.25,1531.25,0.01,84228,-1.097504833,36.97910167,12530100,0
2023-08-01-15:53:11,939,3.88,0.04,10.11,-0.08,0.24,0,89.12,1529.12,-0.01,84253,-1.097504833,36.97910167,12530100,0
2023-08-01-15:53:11,940,3.65,-0.22,10.77,-0.11,0.07,-0.04,89.9,1529.9,0.01,84257,-1.097504833,36.97910167,20230601,0
2023-08-01-15:53:12,941,4.25,0.32,9.78,0.03,0.03,-0.03,90.57,1530.57,0.01,84251,-1.097355333,36.97914467,12530200,0
2023-08-01-15:53:12,942,3.36,0.61,9.33,-0.02,0.09,0,91.06,1531.06,-0.01,84241,-1.097355333,36.97914467,20230601,0
2023-08-01-15:53:12,943,4.76,1.02,10.45,-0.04,-0.2,-0.03,90.67,1530.67,0,84251,-1.097212,36.97918533,12530300,0
2023-08-01-15:53:13,944,4.31,-0.3,8.83,-0.07,-0.05,-0.03,88.83,1528.83,-0.01,84262,-1.097212,36.97918533,12530300,0
2023-08-01-15:53:13,945,4.07,0.13,9.93,-0.09,0.15,0,89.6,1529.6,0.01,84253,-1.097212,36.97918533,20230601,0
2023-08-01-15:53:13,946,2.93,0.48,9.61,-0.12,0.32,0,90.19,1530.19,-0.01,84241,-1.097058833,36.979233,12530400,0
2023-08-01-15:53:14,947,3.71,0.13,10.59,-0.04,0.03,-0.03,90.96,1530.96,-0.01,84233,-1.097058833,36.979233,20230601,0
2023-08-01-15:53:14,948,3.12,-0.05,10.04,-0.07,-0.09,-0.05,89.32,1529.32,0,84246,-1.097058833,36.979233,20230601,0
2023-08-01-15:53:14,949,3.58,0.46,10.31,-0.03,0,-0.03,88.64,1528.64,0,84263,-1.096911,36.9792775,12530500,0
2023-08-01-15:53:15,950,3.77,0.24,10.79,-0.06,-0.05,-0.04,90.28,1530.28,-0.01,84261,-1.096911,36.9792775,20230601,0
2023-08-01-15:53:15,951,3.96,-0.2,10.42,0.03,-0.21,-0.05,88.25,1528.25,0,84267,-1.096758667,36.97932233,12530600,0
2023-08-01-15:53:15,952,2.41,0.49,10.94,0.04,-0.02,-0.01,94.15,1534.15,0.03,84219,-1.096758667,36.97932233,12530600,0
2023-08-01-15:53:16,953,2.83,0.23,10.53,-0.08,-0.12,-0.02,109.64,1549.64,-0.01,84040,-1.096758667,36.97932233,20230601,0
2023-08-01-15:53:16,954,2.43,0.26,9.5,-0.15,0.21,0,108.09,1548.09,-0.01,84044,-1.096612667,36.97937017,12530700,0
2023-08-01-15:53:17,955,3.27,0.32,10.77,0.06,0.05,-0.01,103.25,1543.25,-0.04,84091,-1.096612667,36.97937017,12530700,0
2023-08-01-15:53:17,956,4.05,0.57,9.79,-0.1,0.12,-0.01,99.47,1539.47,0.01,84154,-1.096612667,36.97937017,20230601,0
2023-08-01-15:53:17,957,2.46,0.3,9.13,-0.05,0.35,0.01,96.76,1536.76,-0.01,84177,-1.096464167,36.979408,12530800,0
2023-08-01-15:53:18,958,3.23,1.37,13.03,-0.02,0.36,-0.06,95.7,1535.7,0,84180,-1.096464167,36.979408,20230601,0
2023-08-01-15:53:18,959,0.61,0.06,10.55,0.18,0.15,-0.02,94.25,1534.25,0,84211,-1.096311,36.97945267,12530900,0
2023-08-01-15:53:19,960,0.44,0.45,11.76,0.03,0.38,0.01,95.41,1535.41,0,84193,-1.096311,36.97945267,12530900,0
2023-08-01-15:53:19,961,-0.2,0.57,11.9,-0.08,0.12,-0.03,96.66,1536.66,-0.01,84174,-1.096311,36.97945267,20230601,0
2023-08-01-15:53:19,962,-0.37,0.8,12.39,-0.11,0.04,-0.07,96.86,1536.86,0,84178,-1.096160833,36.97949517,12531000,0
2023-08-01-15:53:20,963,-1.01,0.35,11.69,-0.01,0,-0.07,96.95,1536.95,0,84173,-1.096160833,36.97949517,20230601,0
2023-08-01-15:53:20,964,-0.93,0.2,12.26,-0.07,0.18,-0.05,97.73,1537.73,0.01,84170,-1.096008,36.97953083,12531100,0
2023-08-01-15:53:21,965,-0.5,0.53,12.04,-0.08,-0.76,0,97.25,1537.25,0,84168,-1.096008,36.97953083,12531100,0
2023-08-01-15:53:21,966,-0.78,0.22,11.27,0.15,-0.25,0.08,97.83,1537.83,0,84162,-1.096008,36.97953083,20230601,0
2023-08-01-15:53:21,967,-0.06,0.22,10.83,-0.15,0.01,-0.03,96.76,1536.76,-0.01,84173,-1.096008,36.97953083,20230601,0
2023-08-01-15:53:22,968,-0.62,0.5,10.82,0,-0.14,-0.01,96.76,1536.76,0,84171,-1.095857333,36.9795725,12531200,0
2023-08-01-15:53:22,969,-0.23,0.11,10.86,-0.06,-0.06,-0.02,97.63,1537.63,0,84165,-1.095857333,36.9795725,20230601,0
2023-08-01-15:53:23,970,-0.61,0.24,10.69,-0.14,0.04,-0.04,97.34,1537.34,-0.01,84171,-1.095857333,36.9795725,20230601,0
2023-08-01-15:53:23,971,-0.63,0.38,10.77,0.07,-0.07,-0.01,96.66,1536.66,0,84179,-1.095702833,36.97960867,12531300,0
2023-08-01-15:53:23,972,-0.35,-0.13,9.87,-0.06,0.03,-0.05,96.66,1536.66,-0.01,84177,-1.095702833,36.97960867,20230601,0
2023-08-01-15:53:24,973,-0.5,0.35,11.49,0.04,0.11,-0.01,96.95,1536.95,0,84180,-1.0955525,36.979644,12531400,0
2023-08-01-15:53:24,974,0.01,-0.11,10.01,-0.15,-0.1,-0.04,97.34,1537.34,-0.01,84176,-1.0955525,36.979644,12531400,0
2023-08-01-15:53:25,975,-0.36,0.23,10.94,-0.05,0.15,0,97.25,1537.25,-0.01,84171,-1.0955525,36.979644,20230601,0
2023-08-01-15:53:25,976,-0.2,0.13,9.99,-0.1,-0.14,-0.05,97.05,1537.05,-0.02,84178,-1.095416667,36.97967267,12531500,0
2023-08-01-15:53:25,977,-0.84,0.25,10.92,0.01,-0.19,-0.03,97.15,1537.15,0,84183,-1.095416667,36.97967267,12531500,0
2023-08-01-15:53:25,978,-0.57,0.48,10.79,-0.02,0.03,-0.01,97.15,1537.15,0,84174,-1.095416667,36.97967267,20230601,0
2023-08-01-15:53:26,979,-0.27,0.26,10.76,-0.02,0.04,-0.02,97.44,1537.44,0,84174,-1.095312667,36.97971217,12531600,0
2023-08-01-15:53:26,980,-0.38,0.3,10.86,-0.06,-0.09,-0.04,96.66,1536.66,-0.02,84177,-1.095312667,36.97971217,20230601,0
2023-08-01-15:53:26,981,-0.32,0.43,10.99,-0.09,0.11,-0.03,97.05,1537.05,0,84176,-1.095209833,36.97974983,12531700,0
2023-08-01-15:53:27,982,-0.43,0.37,10.89,-0.1,-0.01,-0.02,96.57,1536.57,0,84173,-1.095209833,36.97974983,12531700,0
2023-08-01-15:53:27,983,-0.6,0.31,11.02,0,0.11,-0.01,98.02,1538.02,0.01,84172,-1.095209833,36.97974983,20230601,0
2023-08-01-15:53:27,984,-0.63,0.42,10.65,-0.01,-0.02,-0.03,96.95,1536.95,0,84180,-1.095209833,36.97974983,20230601,0
2023-08-01-15:53:28,985,-0.8,0.38,10.56,-0.03,-0.05,-0.03,98.02,1538.02,0,84171,-1.095127833,36.979789,12531800,0
2023-08-01-15:53:28,986,-0.6,0.26,10.64,-0.09,-0.05,-0.02,97.92,1537.92,0,84169,-1.095127833,36.979789,20230601,0
2023-08-01-15:53:29,987,-0.47,0.32,11.37,-0.04,0.1,-0.03,96.18,1536.18,-0.01,84165,-1.095090167,36.97980833,12531900,0
2023-08-01-15:53:29,988,-0.87,0,10.54,-0.07,-0.04,-0.01,97.05,1537.05,-0.01,84169,-1.095090167,36.97980833,20230601,0
2023-08-01-15:53:29,989,-1.25,0.12,10.86,-0.05,0.1,-0.01,97.44,1537.44,0,84173,-1.095038667,36.9798355,12532000,0
2023-08-01-15:53:30,990,-0.32,0.34,10.68,-0.04,-0.06,-0.02,97.25,1537.25,0,84169,-1.095038667,36.9798355,20230601,0
2023-08-01-15:53:30,991,-0.58,0.08,10.42,0,0.01,-0.02,97.15,1537.15,-0.01,84172,-1.095038667,36.9798355,20230601,0
2023-08-01-15:53:30,992,-0.96,0.46,10.47,-0.06,-0.11,-0.04,97.44,1537.44,-0.01,84166,-1.0949945,36.9798435,12532100,0
2023-08-01-15:53:31,993,-0.46,0,10.83,-0.1,0.03,-0.03,97.73,1537.73,0,84172,-1.0949945,36.9798435,20230601,0
2023-08-01-15:53:31,994,-0.29,0.48,10.78,-0.04,0.08,-0.03,97.73,1537.73,0,84166,-1.094990333,36.97984983,12532200,0
2023-08-01-15:53:31,995,-0.65,0.48,10.59,-0.03,-0.06,-0.02,97.83,1537.83,0,84164,-1.094990333,36.97984983,12532200,0
2023-08-01-15:53:32,996,-0.87,0.36,11.19,-0.08,0.14,-0.02,97.73,1537.73,-0.01,84166,-1.094990333,36.97984983,20230601,0
2023-08-01-15:53:33,997,-1.28,0.35,10.96,-0.06,0.01,-0.02,97.73,1537.73,0,84172,-1.094979333,36.9798575,12532300,0
2023-08-01-15:53:33,998,-0.53,0.7,10.53,-0.01,0.01,-0.03,98.02,1538.02,-0.01,84175,-1.094979333,36.9798575,20230601,0
2023-08-01-15:53:33,999,-0.45,0.44,10.99,-0.03,0,-0.01,97.44,1537.44,-0.01,84169,-1.094986833,36.97985533,12532400,0
2023-08-01-15:53:33,1000,-0.88,0.34,10.82,-0.02,0.04,-0.02,97.05,1537.05,-0.01,84171,-1.094986833,36.97985533,12532400,0
2023-08-01-15:53:34,1001,-0.34,0.58,11.04,-0.04,0.08,-0.02,97.83,1537.83,0,84177,-1.094986833,36.97985533,20230601,0
2023-08-01-15:53:34,1002,-0.96,0.38,11.2,-0.03,0.03,-0.03,97.73,1537.73,-0.02,84172,-1.095029667,36.9798595,12532500,0
2023-08-01-15:53:35,1003,-0.41,0.12,10.96,0,0.07,-0.01,97.15,1537.15,-0.01,84169,-1.095029667,36.9798595,20230601,0
2023-08-01-15:53:37,1004,-0.53,0.17,10.87,-0.02,0.05,0,97.34,1537.34,-0.01,84166,-1.095029667,36.9798595,20230601,0
2023-08-01-15:53:38,1005,-0.92,0.57,10.89,-0.06,-0.01,-0.02,98.89,1538.89,0.01,84162,-1.095047,36.97985233,12532600,0
2023-08-01-15:53:38,1006,-0.77,0.4,10.89,-0.04,-0.12,-0.03,98.5,1538.5,0,84156,-1.095047,36.97985233,20230601,0
2023-08-01-15:53:38,1007,-0.3,0.5,10.88,-0.02,0.08,-0.03,97.54,1537.54,0.01,84174,-1.095047,36.97985233,20230601,0
2023-08-01-15:53:38,1008,-0.07,0.49,10.85,-0.1,-0.02,-0.03,96.57,1536.57,0,84184,-1.095073,36.97984767,12532700,0
2023-08-01-15:53:38,1009,-1.45,0.21,10.82,0.05,-0.82,0.05,95.89,1535.89,0,84185,-1.095073,36.97984767,12532700,0
2023-08-01-15:53:38,1010,-0.91,0.31,11.31,-0.1,-0.17,-0.01,96.57,1536.57,0.01,84194,-1.095073,36.97984767,20230601,0
2023-08-01-15:53:38,1011,-0.44,0.35,11.39,-0.04,0,-0.03,95.12,1535.12,0,84198,-1.095092,36.97983917,12532800,0
2023-08-01-15:53:38,1012,-0.01,0.51,11.37,-0.03,0.01,-0.03,95.31,1535.31,-0.01,84189,-1.095092,36.97983917,12532800,0
2023-08-01-15:53:38,1013,0.28,0.34,11.09,-0.01,-0.06,-0.03,94.73,1534.73,0,84199,-1.095092,36.97983917,20230601,0
2023-08-01-15:53:38,1014,0.53,0.44,11.47,-0.08,0.01,-0.04,94.44,1534.44,0,84201,-1.0951095,36.979833,12532900,0
2023-08-01-15:53:39,1015,0.88,0.32,11.29,-0.06,-0.04,-0.03,94.34,1534.34,0,84197,-1.0951095,36.979833,20230601,0
2023-08-01-15:53:39,1016,0.9,0.35,11.23,-0.06,0.04,-0.01,94.92,1534.92,0.01,84206,-1.0951095,36.979833,20230601,0
2023-08-01-15:53:41,1017,0.88,0.58,11.26,-0.05,0.02,-0.03,95.31,1535.31,0.01,84205,-1.0951275,36.97982683,12533000,0
2023-08-01-15:53:42,1018,0.85,0.53,11.38,-0.06,0.11,-0.02,92.89,1532.89,0.01,84216,-1.0951275,36.97982683,20230601,0
2023-08-01-15:53:42,1019,0.99,0.26,11.58,-0.08,0.06,0,92.7,1532.7,-0.01,84207,-1.0951275,36.97982683,20230601,0
2023-08-01-15:53:42,1020,2.39,0.49,11.09,-0.1,0.13,-0.01,93.09,1533.09,0.01,84217,-1.09514,36.979815,12533100,0
2023-08-01-15:53:42,1021,1.23,0.01,10.82,-0.06,0.08,-0.02,93.38,1533.38,-0.02,84224,-1.09514,36.979815,20230601,0
2023-08-01-15:53:42,1022,2.31,0.32,10.82,-0.01,-0.07,-0.04,93.18,1533.18,0.01,84226,-1.09514,36.979815,20230601,0
2023-08-01-15:53:42,1023,2.77,0.81,10.93,-0.06,0.26,-0.01,92.12,1532.12,-0.01,84226,-1.095153167,36.9798105,12533200,0
2023-08-01-15:53:42,1024,2.6,0.17,10.34,-0.02,0,-0.01,94.73,1534.73,0,84190,-1.095153167,36.9798105,20230601,0
2023-08-01-15:53:43,1025,2.63,0.44,10.2,-0.02,0.14,-0.02,101.89,1541.89,0.03,84145,-1.0951575,36.9798075,12533300,0
2023-08-01-15:53:43,1026,1.58,0.5,11.4,-0.03,0.1,-0.03,102.18,1542.18,-0.02,84113,-1.0951575,36.9798075,12533300,0
2023-08-01-15:53:44,1027,2.4,0.28,10.18,0.08,-0.17,-0.04,99.95,1539.95,0,84145,-1.0951575,36.9798075,20230601,0
2023-08-01-15:53:44,1028,2.23,0.43,10.12,0.01,0.06,-0.01,97.05,1537.05,0,84166,-1.095142333,36.97980717,12533400,0
2023-08-01-15:53:44,1029,2.86,0.26,10.83,-0.08,0.29,-0.02,94.63,1534.63,-0.01,84188,-1.095142333,36.97980717,20230601,0
2023-08-01-15:53:45,1030,2.67,0.41,12.28,-0.05,1.09,-0.1,95.12,1535.12,0,84196,-1.095095,36.9798165,12533500,0
2023-08-01-15:53:45,1031,4.51,1.6,13.94,-0.3,1.08,-0.11,96.66,1536.66,0.04,84204,-1.095095,36.9798165,20230601,0
2023-08-01-15:53:46,1032,-0.29,0.37,13.31,0.08,0.06,0.04,95.31,1535.31,0,84173,-1.095095,36.9798165,20230601,0
2023-08-01-15:53:46,1033,-0.56,0.45,11.41,-0.06,0.28,-0.04,95.99,1535.99,0.01,84186,-1.095029167,36.97983833,12533600,0
2023-08-01-15:53:46,1034,-0.44,0.57,12.9,-0.02,0.12,-0.07,96.76,1536.76,0,84179,-1.095029167,36.97983833,12533600,0
2023-08-01-15:53:47,1035,-0.7,0.48,12.34,-0.02,0.11,-0.07,97.15,1537.15,0,84173,-1.095029167,36.97983833,20230601,0
2023-08-01-15:53:50,1036,-0.58,0.61,12.67,-0.09,0.07,-0.05,96.18,1536.18,-0.01,84191,-1.095029167,36.97983833,20230601,0
2023-08-01-15:53:50,1037,-0.47,0.89,13.33,0.14,-0.81,0.09,95.7,1535.7,0,84191,-1.094948333,36.97986317,12533700,0
2023-08-01-15:53:50,1038,-0.95,1.25,10.78,-0.06,-0.93,0.01,96.08,1536.08,0,84192,-1.094948333,36.97986317,20230601,0
2023-08-01-15:53:50,1039,-0.52,0.12,10.75,0.03,0.06,0.03,96.18,1536.18,-0.01,84180,-1.094851667,36.97988583,12533800,0
2023-08-01-15:53:50,1040,-0.23,0.5,10.55,-0.11,0.07,-0.06,95.5,1535.5,-0.01,84190,-1.094851667,36.97988583,20230601,0
2023-08-01-15:53:50,1041,-0.37,0.27,10.57,0,0.26,-0.04,96.28,1536.28,0,84185,-1.094742,36.97991717,12533900,0
2023-08-01-15:53:50,1042,-0.02,0.56,10.37,-0.05,0.03,-0.06,95.99,1535.99,-0.01,84175,-1.094742,36.97991717,12533900,0
2023-08-01-15:53:50,1043,-0.56,0.17,10.64,-0.02,-0.15,-0.01,96.86,1536.86,0,84153,-1.094627333,36.97995417,12534000,0
2023-08-01-15:53:51,1044,-0.39,0.63,10.77,-0.08,0.09,-0.01,97.63,1537.63,0,84177,-1.094627333,36.97995417,12534000,0
2023-08-01-15:53:51,1045,-0.36,0.54,10.95,-0.03,0.03,-0.02,96.66,1536.66,-0.01,84174,-1.094498,36.97999883,12534100,0
2023-08-01-15:53:51,1046,-0.25,0.28,10.92,-0.07,0.07,-0.03,97.34,1537.34,0,84169,-1.094498,36.97999883,12534100,0
2023-08-01-15:53:52,1047,-0.66,0.42,10.68,0.08,-0.45,0.07,97.05,1537.05,0,84174,-1.094498,36.97999883,20230601,0
2023-08-01-15:53:52,1048,-0.67,0.25,11.24,-0.14,-0.05,-0.02,97.05,1537.05,0,84178,-1.094383833,36.98004217,12534200,0
2023-08-01-15:53:53,1049,0.18,0.37,11.31,-0.07,-0.07,-0.05,97.25,1537.25,-0.02,84166,-1.094383833,36.98004217,20230601,0
2023-08-01-15:53:53,1050,0.28,0.31,10.94,-0.04,-0.02,-0.03,97.44,1537.44,0,84173,-1.094383833,36.98004217,20230601,0
2023-08-01-15:53:53,1051,0.31,0.45,10.91,-0.05,0.03,-0.03,96.76,1536.76,0,84176,-1.0943065,36.98009333,12534300,0
2023-08-01-15:53:55,1052,0.39,0.48,11,-0.06,0.04,-0.03,98.99,1538.99,0.01,84153,-1.0943065,36.98009333,12534300,0
2023-08-01-15:53:55,1053,0.45,0.53,10.98,-0.04,0.01,-0.02,98.5,1538.5,0.01,84155,-1.0943065,36.98009333,20230601,0
2023-08-01-15:53:55,1054,0.45,0.67,10.75,-0.05,0.02,-0.04,98.6,1538.6,0,84167,-1.094252667,36.98014633,12534400,0
2023-08-01-15:53:55,1055,0.8,0.27,10.81,-0.09,0.06,-0.03,98.41,1538.41,-0.01,84163,-1.094252667,36.98014633,20230601,0
2023-08-01-15:53:56,1056,0.31,0.49,11.33,-0.02,0.11,-0.01,98.6,1538.6,0,84163,-1.0942245,36.980172,12534500,0
2023-08-01-15:54:28,1104,-1.83,0.06,10.98,-0.06,0.54,-0.03,98.99,1538.99,-0.02,84160,-1.092354333,36.9806285,12541800,0
2023-08-01-15:54:28,1105,-1.08,-0.08,11.71,-0.06,0.12,-0.02,100.44,1540.44,0,84152,-1.092354333,36.9806285,20230601,0
2023-08-01-15:54:28,1106,-1.83,-0.01,10.84,-0.04,-0.09,-0.04,98.41,1538.41,0,84151,-1.0923635,36.98062417,12541900,0
2023-08-01-15:54:29,1107,-1.75,0.25,10.86,-0.13,0.13,-0.04,98.02,1538.02,-0.02,84155,-1.0923635,36.98062417,20230601,0
2023-08-01-15:54:29,1108,-1.6,-0.04,10.52,-0.05,-0.01,-0.02,98.79,1538.79,0,84162,-1.0923635,36.98062417,20230601,0
2023-08-01-15:54:35,1109,-2.05,-0.45,10.26,-0.03,-0.11,-0.01,97.92,1537.92,-0.01,84165,-1.092369167,36.98061733,12542000,0
2023-08-01-15:54:35,1110,-1.68,-0.05,10.5,0,0.11,-0.04,97.05,1537.05,-0.01,84172,-1.092369167,36.98061733,20230601,0
2023-08-01-15:54:35,1111,-2.08,-0.08,10.68,-0.07,0.02,-0.01,97.05,1537.05,0.01,84180,-1.0923725,36.98061517,12542100,0
2023-08-01-15:54:35,1112,-2.64,0.06,10.58,-0.03,-0.05,-0.03,95.79,1535.79,0,84189,-1.0923725,36.98061517,12542100,0
2023-08-01-15:54:35,1113,-2.48,0.07,10.33,-0.09,-0.04,-0.01,96.57,1536.57,0.01,84180,-1.0923725,36.98061517,20230601,0
2023-08-01-15:54:35,1114,-2.54,0.06,10.08,0,0,-0.02,95.6,1535.6,-0.01,84183,-1.092392833,36.98060933,12542200,0
2023-08-01-15:54:35,1115,-2.53,0.29,10.52,-0.01,0.07,-0.01,95.89,1535.89,0,84183,-1.092392833,36.98060933,20230601,0
2023-08-01-15:54:35,1116,-2.72,-0.19,10.16,-0.06,0.01,-0.02,95.5,1535.5,-0.01,84187,-1.092392833,36.98060933,20230601,0
2023-08-01-15:54:35,1117,-2.97,-0.1,10.58,0,0.01,-0.01,97.92,1537.92,0.02,84176,-1.092415833,36.9805965,12542300,0
2023-08-01-15:54:35,1118,-2.93,-0.07,10.06,-0.04,0.02,-0.02,98.41,1538.41,0.01,84155,-1.092415833,36.9805965,20230601,0
2023-08-01-15:54:35,1119,-2.97,0.1,10.46,-0.06,-0.01,-0.03,96.66,1536.66,-0.01,84173,-1.092415833,36.9805965,20230601,0
2023-08-01-15:54:35,1120,-2.81,0.44,10.31,-0.06,-0.01,-0.03,97.05,1537.05,0,84177,-1.092454167,36.98058517,12542400,0
2023-08-01-15:54:35,1121,-3,-0.18,10.51,-0.03,0.03,-0.01,95.21,1535.21,0,84199,-1.092454167,36.98058517,20230601,0
2023-08-01-15:54:35,1122,-2.46,0.64,10.23,-0.01,0,-0.01,95.31,1535.31,0,84195,-1.092513,36.980559,12542500,0
2023-08-01-15:54:36,1123,-3.13,-0.02,9.88,-0.02,0.12,-0.01,95.6,1535.6,0,84186,-1.092513,36.980559,12542500,0
2023-08-01-15:54:36,1124,-2.95,0.03,10.52,-0.05,-0.07,-0.03,96.86,1536.86,0,84179,-1.092513,36.980559,20230601,0
2023-08-01-15:54:37,1125,-2.85,-0.02,11.13,-0.06,-0.51,-0.01,96.08,1536.08,0,84176,-1.0925905,36.98052467,12542600,0
2023-08-01-15:54:37,1126,-1.73,-0.17,11.94,-0.1,0.22,-0.08,95.31,1535.31,0,84185,-1.0925905,36.98052467,12542600,0
2023-08-01-15:54:37,1127,-2.21,0.14,11.57,-0.11,-0.01,0,96.66,1536.66,0.01,84189,-1.092688167,36.980492,12542700,0
2023-08-01-15:54:38,1128,-1.7,-0.15,11.59,-0.08,-0.03,0.08,96.57,1536.57,0,84188,-1.092688167,36.980492,12542700,0
2023-08-01-15:54:38,1129,-2.23,0.25,11.64,-0.03,0.05,0.02,96.28,1536.28,-0.04,84187,-1.092688167,36.980492,20230601,0
2023-08-01-15:54:39,1130,-2,0.12,12.12,-0.08,0.17,-0.1,96.66,1536.66,0,84180,-1.092688167,36.980492,20230601,0
2023-08-01-15:54:39,1131,-1.58,-0.11,11.56,-0.14,0.12,-0.06,96.28,1536.28,-0.01,84172,-1.092799833,36.98044867,12542800,0
2023-08-01-15:54:39,1132,-1.97,0.38,11.63,-0.03,0.27,-0.03,98.31,1538.31,0,84156,-1.092799833,36.98044867,20230601,0
2023-08-01-15:54:40,1133,-0.41,0.15,11.26,-0.02,0.19,-0.03,98.31,1538.31,0,84151,-1.092916667,36.98040367,12542900,0
2023-08-01-15:54:40,1134,-0.67,0.04,10.89,-0.1,0.1,-0.03,98.31,1538.31,0,84165,-1.092916667,36.98040367,12542900,0
2023-08-01-15:54:41,1135,-0.56,0.12,10.9,-0.05,0.13,-0.03,98.21,1538.21,0.01,84163,-1.093047333,36.98036083,12543000,0
2023-08-01-15:54:41,1136,-0.57,0.14,11.01,-0.04,0.04,-0.01,98.12,1538.12,-0.01,84146,-1.093047333,36.98036083,12543000,0
2023-08-01-15:54:41,1137,-0.71,0.23,10.86,-0.09,0.12,-0.04,98.5,1538.5,0.01,84175,-1.093047333,36.98036083,20230601,0
2023-08-01-15:54:43,1138,-0.79,0.1,11.11,-0.1,0.07,-0.02,96.86,1536.86,-0.03,84167,-1.0931795,36.980313,12543100,0
2023-08-01-15:54:43,1139,-1.31,0.14,10.79,0.02,0.19,-0.01,98.12,1538.12,-0.02,84178,-1.0933235,36.980266,12543200,0
2023-08-01-15:54:43,1140,-0.61,0.05,10.51,-0.09,0.17,-0.02,98.12,1538.12,0,84175,-1.0933235,36.980266,20230601,0
2023-08-01-15:54:43,1141,-0.87,0.06,10.51,-0.02,-0.06,-0.03,97.15,1537.15,-0.01,84150,-1.093456833,36.98022367,12543300,0
2023-08-01-15:54:43,1142,-0.36,-0.21,9.94,-0.07,-0.16,-0.04,97.25,1537.25,0,84180,-1.093456833,36.98022367,20230601,0
2023-08-01-15:54:44,1143,-0.48,0.07,10.69,-0.01,-0.02,-0.03,95.89,1535.89,-0.02,84166,-1.093570333,36.98018517,12543400,0
2023-08-01-15:54:44,1144,-0.5,-0.13,10.75,-0.11,0,-0.03,98.41,1538.41,0,84163,-1.093570333,36.98018517,12543400,0
2023-08-01-15:54:45,1145,-0.37,-0.03,10.78,-0.04,-0.04,-0.04,99.57,1539.57,0,84160,-1.093570333,36.98018517,20230601,0
2023-08-01-15:54:45,1146,-0.66,-0.07,10.65,-0.11,0.01,-0.05,97.25,1537.25,-0.02,84184,-1.093570333,36.98018517,20230601,0
2023-08-01-15:54:45,1147,-0.15,0.2,10.86,-0.04,-0.02,-0.01,97.34,1537.34,0,84170,-1.093633,36.98015567,12543500,0
2023-08-01-15:54:46,1148,-1.34,0.26,10.77,-0.02,0.05,0,99.95,1539.95,0.01,84149,-1.093633,36.98015567,20230601,0
2023-08-01-15:54:46,1149,-0.52,-0.04,10.72,0.01,0.02,-0.04,97.25,1537.25,-0.01,84156,-1.093673,36.980129,12543600,0
2023-08-01-15:54:46,1150,-0.55,0,10.93,-0.08,-0.05,-0.02,99.76,1539.76,0,84147,-1.093673,36.980129,12543600,0
2023-08-01-15:54:47,1151,-1.02,0.04,10.66,-0.02,-0.08,-0.03,100.15,1540.15,-0.01,84130,-1.093673,36.980129,20230601,0
2023-08-01-15:54:47,1152,-0.47,0.08,10.4,-0.01,0.02,-0.03,101.02,1541.02,-0.01,84139,-1.0936955,36.98010133,12543700,0
2023-08-01-15:54:47,1153,-0.16,0.01,10.35,-0.03,0,-0.01,98.89,1538.89,-0.03,84146,-1.0936955,36.98010133,20230601,0
2023-08-01-15:54:48,1154,-0.31,-0.19,10.43,-0.05,-0.11,-0.03,99.18,1539.18,-0.01,84152,-1.093700667,36.98009717,12543800,0
2023-08-01-15:54:48,1155,-0.84,0.09,10.69,-0.01,-0.15,-0.01,99.86,1539.86,0,84154,-1.093700667,36.98009717,12543800,0
2023-08-01-15:54:49,1156,-0.11,0.31,11.28,-0.09,-0.03,-0.03,97.54,1537.54,0.01,84171,-1.093700667,36.98009717,20230601,0
2023-08-01-15:54:49,1157,-0.78,0.15,11.05,-0.06,0.09,-0.02,97.34,1537.34,0,84174,-1.093714667,36.98008467,12543900,0
2023-08-01-15:54:49,1158,-0.21,0.02,10.61,0,-0.04,-0.04,96.95,1536.95,0.01,84177,-1.093714667,36.98008467,20230601,0
2023-08-01-15:54:50,1159,-0.41,0.08,11.08,-0.05,0.12,-0.01,97.25,1537.25,0.01,84168,-1.093718,36.9800745,12544000,0
2023-08-01-15:54:50,1160,-0.79,0,11.16,-0.06,0.12,-0.02,97.34,1537.34,0.01,84176,-1.093718,36.9800745,20230601,0
2023-08-01-15:54:50,1161,0.17,0.23,10.96,-0.04,0.19,-0.02,96.95,1536.95,0,84172,-1.093718,36.9800745,20230601,0
2023-08-01-15:54:51,1162,-0.3,0,10.57,-0.07,0.05,-0.05,97.15,1537.15,-0.01,84164,-1.093718167,36.98007,12544100,0
2023-08-01-15:54:51,1163,0.32,-0.05,10.92,-0.06,0.03,-0.04,97.25,1537.25,-0.01,84170,-1.093718167,36.98007,20230601,0
2023-08-01-15:54:52,1164,-0.5,-0.13,11.08,0.01,0.04,0,98.12,1538.12,0.01,84168,-1.093718167,36.98007,20230601,0
2023-08-01-15:54:52,1165,-0.6,0.12,11.43,-0.03,0.17,-0.02,97.54,1537.54,0,84173,-1.093720667,36.98006433,12544200,0
2023-08-01-15:54:53,1166,-0.03,-0.04,10.47,-0.07,-0.17,-0.03,97.92,1537.92,0.01,84168,-1.093720667,36.98006433,20230601,0
2023-08-01-15:54:54,1167,0.29,0.11,10.66,-0.05,0.08,-0.01,97.34,1537.34,-0.01,84171,-1.0937255,36.9800625,12544300,0
2023-08-01-15:54:55,1168,0.46,-0.03,10.2,-0.06,-0.12,-0.03,97.25,1537.25,0,84171,-1.0937255,36.9800625,12544300,0
2023-08-01-15:55:01,1169,-0.12,-0.15,11.28,-0.04,0.09,0,97.15,1537.15,0,84171,-1.0937245,36.980064,12544400,0
2023-08-01-15:55:01,1170,-0.02,-0.24,10.65,-0.07,-0.16,-0.04,98.31,1538.31,0,84167,-1.0937245,36.980064,20230601,0
2023-08-01-15:55:01,1171,0.19,-0.09,10.29,-0.01,-0.06,-0.01,97.73,1537.73,0,84164,-1.0937245,36.980064,20230601,0
2023-08-01-15:55:01,1172,-0.05,0.08,10.19,-0.06,0.02,-0.01,98.41,1538.41,0.02,84167,-1.093718833,36.98006167,12544500,0
2023-08-01-15:55:01,1173,-0.15,0.19,11,-0.04,0.02,-0.01,95.31,1535.31,0,84188,-1.093718833,36.98006167,20230601,0
2023-08-01-15:55:01,1174,-0.14,0.12,10.79,-0.05,-0.12,0,100.34,1540.34,0.04,84148,-1.093718833,36.98006167,20230601,0
2023-08-01-15:55:01,1175,0.08,-0.05,10.63,-0.01,0,-0.01,98.21,1538.21,-0.01,84154,-1.093703667,36.98006367,12544600,0
2023-08-01-15:55:01,1176,-0.37,-0.03,10.34,-0.06,0.09,-0.04,97.54,1537.54,-0.03,84169,-1.093703667,36.98006367,12544600,0
2023-08-01-15:55:01,1177,0.13,0.42,11.02,-0.04,0.28,-0.04,99.76,1539.76,0,84157,-1.093703667,36.98006367,20230601,0
2023-08-01-15:55:01,1178,-0.79,0.85,10.39,-0.04,-0.38,-0.04,100.34,1540.34,-0.01,84147,-1.093686833,36.980068,12544700,0
2023-08-01-15:55:01,1179,-0.54,-0.14,11.08,-0.02,0.04,0.03,99.57,1539.57,0,84135,-1.093686833,36.980068,20230601,0
2023-08-01-15:55:01,1180,-0.42,0.23,11.3,-0.12,0.12,-0.02,100.83,1540.83,-0.01,84123,-1.0936665,36.98007233,12544800,0
2023-08-01-15:55:01,1181,-0.55,-0.14,10.88,-0.06,-0.05,0.01,100.54,1540.54,0.02,84147,-1.0936665,36.98007233,12544800,0
2023-08-01-15:55:01,1182,-0.66,-0.09,10.81,-0.05,-0.13,-0.02,98.6,1538.6,0,84140,-1.0936665,36.98007233,20230601,0
2023-08-01-15:55:01,1183,-0.35,-0.07,10.9,-0.07,0.09,-0.02,98.31,1538.31,-0.01,84160,-1.093633667,36.98008833,12544900,0
2023-08-01-15:55:01,1184,-0.48,-0.12,10.93,-0.03,-0.1,-0.03,101.21,1541.21,0,84139,-1.093633667,36.98008833,20230601,0
2023-08-01-15:55:01,1185,-0.13,0.07,11.01,-0.05,-0.03,-0.04,97.34,1537.34,-0.01,84163,-1.093633667,36.98008833,20230601,0
2023-08-01-15:55:02,1186,-0.47,-0.01,11.16,-0.03,-0.1,-0.03,98.6,1538.6,0.01,84158,-1.093603833,36.9800975,12545000,0
2023-08-01-15:55:02,1187,-0.46,0.1,11.37,0,0.14,-0.02,97.92,1537.92,-0.01,84147,-1.093603833,36.9800975,20230601,0
2023-08-01-15:55:03,1188,-0.45,-0.12,11.15,0,0.01,-0.01,97.83,1537.83,0,84169,-1.093603833,36.9800975,20230601,0
2023-08-01-15:55:03,1189,0.06,-0.15,10.15,0.04,-0.05,-0.02,98.5,1538.5,0.01,84163,-1.093570167,36.980108,12545100,0
2023-08-01-15:55:04,1190,-0.38,-0.02,11.02,-0.1,0.34,-0.05,96.57,1536.57,0,84155,-1.093570167,36.980108,20230601,0
2023-08-01-15:55:04,1191,-0.05,-0.4,11.69,-0.12,-1.05,0.01,97.73,1537.73,0,84162,-1.093536667,36.98012567,12545200,0
2023-08-01-15:55:05,1192,-1.01,-0.26,10.81,0.01,0.19,0.04,98.7,1538.7,0,84151,-1.093500833,36.98013667,12545300,0
2023-08-01-15:55:05,1193,0.09,-0.16,10.45,-0.06,0.05,-0.03,97.05,1537.05,-0.01,84175,-1.093500833,36.98013667,20230601,0
2023-08-01-15:55:06,1194,-0.73,-0.22,10.95,-0.06,0.07,-0.02,96.95,1536.95,-0.02,84180,-1.0934885,36.98014567,12545400,0
2023-08-01-15:55:06,1195,-0.64,-0.04,10.64,-0.06,-0.04,-0.02,97.83,1537.83,-0.01,84173,-1.093477833,36.98015333,12545500,0
2023-08-01-15:55:07,1196,-0.31,0.02,10.8,-0.05,-0.07,-0.04,97.83,1537.83,0,84168,-1.093477833,36.98015333,20230601,0
2023-08-01-15:55:07,1197,-0.21,-0.08,10.68,-0.06,0,-0.03,99.57,1539.57,0.02,84150,-1.093477833,36.98015333,20230601,0
2023-08-01-15:55:08,1198,-0.72,0.06,11.13,-0.08,0.07,-0.02,97.25,1537.25,0,84185,-1.093473333,36.980162,12545600,0
2023-08-01-15:55:08,1199,-0.36,-0.33,10.81,-0.01,-0.04,-0.02,97.15,1537.15,0,84186,-1.093473333,36.980162,20230601,0
2023-08-01-15:55:09,1200,-0.8,-0.13,10.89,-0.03,0.07,-0.01,96.66,1536.66,0,84177,-1.093467667,36.98017,12545700,0
2023-08-01-15:55:09,1201,-0.2,-0.27,10.64,-0.07,-0.12,-0.03,98.21,1538.21,0,84163,-1.093467667,36.98017,12545700,0
2023-08-01-15:55:09,1202,0.11,-0.01,10.46,-0.02,-0.12,-0.03,97.63,1537.63,-0.01,84166,-1.093467667,36.98017,20230601,0
2023-08-01-15:55:10,1203,-0.51,-0.04,10.81,-0.02,-0.35,-0.02,98.02,1538.02,-0.01,84164,-1.093452833,36.980179,12545800,0
2023-08-01-15:55:11,1204,-0.27,0.06,10.87,-0.06,0.09,-0.02,97.25,1537.25,0,84167,-1.093452833,36.980179,20230601,0
2023-08-01-15:55:11,1205,0.06,0.1,11.05,-0.02,0.02,-0.02,97.92,1537.92,0,84167,-1.093434833,36.98017983,12545900,0
2023-08-01-15:55:11,1206,0.09,-0.16,10.68,-0.09,0,-0.04,98.41,1538.41,0,84163,-1.093434833,36.98017983,20230601,0
2023-08-01-15:55:12,1207,0.19,-0.3,10.75,-0.05,0.04,-0.04,98.6,1538.6,0,84159,-1.0934285,36.9801835,12550000,0
2023-08-01-15:55:13,1208,0.34,0.19,11.14,-0.05,0.11,-0.02,97.44,1537.44,-0.01,84163,-1.0934285,36.9801835,20230601,0
2023-08-01-15:55:13,1209,-0.01,0.15,11.32,-0.01,0.05,-0.02,98.12,1538.12,0.01,84150,-1.0934215,36.98018783,12550100,0
2023-08-01-15:55:13,1210,0.29,0.06,11,-0.03,0.08,-0.02,97.15,1537.15,0,84167,-1.0934215,36.98018783,20230601,0
2023-08-01-15:55:13,1211,0.38,-0.28,10.58,-0.05,0.04,-0.03,95.12,1535.12,0,84196,-1.0934215,36.98018783,20230601,0
2023-08-01-15:55:14,1212,0.01,-0.03,10.95,-0.04,-0.03,-0.03,96.08,1536.08,0,84176,-1.093416833,36.98019517,12550200,0
2023-08-01-15:55:16,1213,0.42,0.11,10.99,-0.04,-0.08,-0.04,98.02,1538.02,0,84157,-1.093416833,36.98019517,12550200,0
2023-08-01-15:55:17,1214,0.68,-0.14,10.81,-0.04,0.03,-0.03,100.44,1540.44,0,84137,-1.093416833,36.98019517,20230601,0
2023-08-01-15:55:17,1215,0.05,0.06,11.57,-0.03,0.11,-0.02,102.37,1542.37,0.01,84140,-1.093415333,36.98020317,12550300,0
2023-08-01-15:55:17,1216,0.59,0.02,13.41,0.04,0.77,-0.01,99.08,1539.08,-0.01,84149,-1.093415333,36.98020317,20230601,0
2023-08-01-15:55:17,1217,-1.24,-0.01,11.1,-0.05,-1.26,0.07,103.92,1543.92,0.02,84131,-1.0934125,36.980204,12550400,0
2023-08-01-15:55:17,1218,-0.76,-0.01,10.24,0,-0.27,0.05,98.89,1538.89,-0.02,84148,-1.0934125,36.980204,20230601,0
2023-08-01-15:55:17,1219,-0.21,-0.02,10.65,0,-0.05,0,98.5,1538.5,-0.01,84167,-1.093411333,36.98020917,12550500,0
2023-08-01-15:55:17,1220,-0.6,-0.11,10.35,-0.03,-0.03,-0.02,98.41,1538.41,0,84144,-1.093411333,36.98020917,20230601,0
2023-08-01-15:55:18,1221,-0.57,0.09,10.8,-0.09,-0.04,-0.05,97.83,1537.83,-0.03,84147,-1.093411333,36.98020917,20230601,0
2023-08-01-15:55:18,1222,-0.52,0.02,10.85,-0.02,0.01,-0.01,99.18,1539.18,0.01,84160,-1.093380167,36.9802165,12550700,0
2023-08-01-15:55:19,1223,-0.55,-0.09,10.69,-0.1,0.07,-0.02,100.24,1540.24,0.01,84150,-1.093380167,36.9802165,20230601,0
2023-08-01-15:55:20,1224,-0.36,0.09,10.97,-0.08,-0.18,0,98.21,1538.21,0,84155,-1.093380167,36.9802165,20230601,0
2023-08-01-15:55:50,1275,-3.43,-0.05,10.57,-0.05,-0.08,-0.03,97.92,1537.92,0.01,84169,-1.092682,36.980511,20230601,0
2023-08-01-15:55:52,1276,-2.83,0.02,10.54,-0.02,-0.1,-0.02,97.63,1537.63,0,84177,-1.092673167,36.98051583,12553500,0
2023-08-01-15:55:54,1277,-2.51,-0.47,9.79,-0.05,-0.02,-0.02,98.31,1538.31,0,84155,-1.092673167,36.98051583,20230601,0
2023-08-01-15:55:56,1278,-2.83,-0.11,10.28,-0.06,0.06,-0.01,98.89,1538.89,-0.01,84158,-1.092674833,36.98051117,12553600,0
2023-08-01-15:55:58,1279,-2.82,0.1,10.47,0.04,-0.02,-0.01,99.18,1539.18,0.01,84157,-1.092674833,36.98051117,20230601,0
2023-08-01-15:56:00,1280,-3.34,-0.08,10.4,-0.06,-0.05,-0.04,100.54,1540.54,0.02,84161,-1.092695667,36.98051033,12553700,0
2023-08-01-15:56:02,1281,-3.19,-0.17,10.44,-0.03,-0.01,-0.04,98.99,1538.99,-0.01,84154,-1.092695667,36.98051033,20230601,0
2023-08-01-15:56:04,1282,-2.83,-0.25,10.29,-0.04,-0.03,-0.02,99.18,1539.18,0,84155,-1.092719167,36.980512,12553800,0
2023-08-01-15:56:07,1283,-2.94,-0.61,9.21,-0.08,0.03,-0.02,98.12,1538.12,0,84166,-1.092719167,36.980512,20230601,0
2023-08-01-15:56:08,1284,-3.36,-0.07,9.95,0.02,0,-0.02,99.28,1539.28,0,84150,-1.092753833,36.9805085,12553900,0
2023-08-01-15:56:09,1285,-3.14,-0.18,10.05,-0.02,0.09,-0.02,99.28,1539.28,0,84135,-1.092828667,36.9804845,12554000,0
2023-08-01-15:56:10,1286,-3.34,-0.35,9.99,-0.06,-0.01,-0.04,99.28,1539.28,0,84153,-1.092828667,36.9804845,20230601,0
2023-08-01-15:56:10,1287,-3.75,-0.31,10.2,-0.01,0.03,-0.02,98.5,1538.5,0,84150,-1.0929265,36.98046217,12554100,0
2023-08-01-15:56:11,1288,-3.29,-0.1,10.41,-0.05,-0.08,-0.03,97.44,1537.44,-0.01,84170,-1.0929265,36.98046217,20230601,0
2023-08-01-15:56:12,1289,-3.22,-0.18,9.84,-0.09,0,-0.04,97.25,1537.25,0.01,84171,-1.093028667,36.98043867,12554200,0
2023-08-01-15:56:12,1290,-3.34,-0.7,9.99,0.05,0.01,0,97.83,1537.83,-0.01,84168,-1.093145833,36.980418,12554300,0
2023-08-01-15:56:13,1291,-2.85,-0.37,10.26,-0.01,0.03,-0.02,98.02,1538.02,0.01,84167,-1.093145833,36.980418,20230601,0
2023-08-01-15:56:13,1292,-3.2,-0.11,10.28,-0.04,0,-0.04,97.54,1537.54,0,84165,-1.093145833,36.980418,20230601,0
2023-08-01-15:56:14,1293,-2.75,-0.21,10.15,-0.02,-0.09,-0.01,97.15,1537.15,-0.01,84168,-1.093263167,36.98039933,12554400,0
2023-08-01-15:56:14,1294,-3.28,-0.51,9.81,0,0.04,-0.02,94.63,1534.63,-0.01,84195,-1.093401,36.980363,12554500,0
2023-08-01-15:56:15,1295,-2.93,-0.33,10.18,-0.04,-0.03,-0.04,94.54,1534.54,0,84194,-1.093401,36.980363,20230601,0
2023-08-01-15:56:15,1296,-3.08,-0.12,10.36,-0.03,0.02,-0.02,95.89,1535.89,0,84189,-1.093537833,36.98031967,12554600,0
2023-08-01-15:56:16,1297,-3.49,-0.27,10.36,-0.06,-0.04,-0.02,97.25,1537.25,-0.01,84168,-1.093683333,36.98027767,12554700,0
2023-08-01-15:56:17,1298,-3.35,-0.07,10.19,-0.02,-0.07,-0.04,98.99,1538.99,0,84149,-1.093827833,36.9802275,12554800,0
2023-08-01-15:56:17,1299,-3.92,-1.35,12.96,0.39,-0.82,-0.32,97.83,1537.83,0.03,84168,-1.093827833,36.9802275,12554800,0
2023-08-01-15:56:18,1300,-2.51,0.16,11.41,-0.01,-0.06,-0.71,98.21,1538.21,0.01,84165,-1.093980333,36.98017983,12554900,0
2023-08-01-15:56:19,1301,-2.52,-0.08,11.22,-0.36,0.29,-0.14,100.34,1540.34,0.01,84149,-1.094132167,36.9801315,12555000,0
2023-08-01-15:56:19,1302,-2.18,1.31,10.93,-0.43,0.22,-0.12,99.18,1539.18,-0.01,84154,-1.094287667,36.9800845,12555100,0
2023-08-01-15:56:20,1303,-2.02,4.55,13.28,-2.3,-1.33,-0.04,97.15,1537.15,0,84180,-1.094587167,36.980003,12555300,0
2023-08-01-15:56:20,1304,-0.74,-2.61,11.23,0.77,0.36,0.08,97.15,1537.15,0,84183,-1.094741,36.97995833,12555400,0
2023-08-01-15:56:21,1305,-2.65,0.89,10.04,-0.24,-0.14,-0.05,96.86,1536.86,0.01,84175,-1.095186,36.9798305,12555700,0
2023-08-01-15:56:21,1306,-4.17,2.96,12.97,-0.49,-1.22,0.37,97.15,1537.15,0,84176,-1.095476,36.97975733,12555900,0
2023-08-01-15:56:22,1307,-3.28,0.34,11.16,0.07,-0.05,0.36,97.44,1537.44,0,84174,-1.095476,36.97975733,20230601,0
2023-08-01-15:56:23,1308,-0.98,-0.65,10.9,0.84,1.11,0.25,98.21,1538.21,0.01,84167,-1.096069833,36.9796025,12560300,0
2023-08-01-15:56:23,1309,-3.05,0.53,10.47,-0.04,-0.1,0,97.73,1537.73,-0.01,84167,-1.096367333,36.97952983,12560500,0
2023-08-01-15:56:24,1310,-3.09,0.28,10.54,-0.02,-0.05,-0.01,99.66,1539.66,0.02,84152,-1.096813667,36.9794125,12560800,0
2023-08-01-15:56:25,1311,-3.26,-0.01,10.61,-0.07,-0.07,-0.03,98.89,1538.89,0,84158,-1.09697,36.97938,12560900,0
2023-08-01-15:56:26,1312,-2.74,-0.52,10.43,0,-0.05,-0.01,98.79,1538.79,0.01,84164,-1.09697,36.97938,20230601,0
2023-08-01-15:56:26,1313,-2.87,0.42,10.11,-0.01,0.04,0,97.34,1537.34,-0.01,84168,-1.097121167,36.9793435,12561000,0
2023-08-01-15:56:27,1314,-2.89,0.52,9.88,-0.01,-0.14,-0.01,97.54,1537.54,0,84165,-1.097121167,36.9793435,20230601,0
2023-08-01-15:56:27,1315,-3.29,-0.07,10.38,0.03,0.06,0.01,97.05,1537.05,0,84169,-1.097272833,36.97930233,12561100,0
2023-08-01-15:56:28,1316,-3.96,0.06,10.21,-0.05,-0.05,-0.04,97.54,1537.54,-0.01,84166,-1.097272833,36.97930233,20230601,0
2023-08-01-15:56:29,1317,-3.53,0.2,10.15,-0.03,0.06,-0.01,98.6,1538.6,0.01,84160,-1.097272833,36.97930233,20230601,0
2023-08-01-15:56:29,1318,-3.33,-0.06,10.7,-0.11,0.03,-0.01,99.76,1539.76,0,84153,-1.097485,36.97921133,12561300,0
2023-08-01-15:56:30,1319,-3.13,-0.1,10.27,-0.05,-0.02,-0.01,98.5,1538.5,0.01,84152,-1.097588,36.97913767,12561400,0
2023-08-01-15:56:31,1320,-2.9,0.39,10.61,-0.03,-0.08,-0.01,98.5,1538.5,-0.01,84153,-1.097588,36.97913767,12561400,0
2023-08-01-15:56:31,1321,-2.95,0.31,10.3,-0.01,0.01,-0.05,98.31,1538.31,-0.01,84154,-1.097690667,36.97904783,12561500,0
2023-08-01-15:56:32,1322,-3.35,-0.28,10.18,-0.16,-0.04,-0.05,100.34,1540.34,0,84131,-1.097690667,36.97904783,20230601,0
2023-08-01-15:56:32,1323,-3.13,0.66,10.66,-0.49,-0.5,0.08,100.92,1540.92,-0.01,84130,-1.0977985,36.97898867,12561600,0
2023-08-01-15:56:33,1324,-3.4,0.21,10.81,1.24,0.83,0.21,95.7,1535.7,-0.05,84167,-1.0977985,36.97898867,20230601,0
2023-08-01-15:56:34,1325,-3.28,-0.1,9.84,-0.08,0.03,-0.03,97.83,1537.83,0.01,84177,-1.0977985,36.97898867,20230601,0
2023-08-01-15:56:35,1326,-3.32,-0.09,10.32,0.02,0,0,97.92,1537.92,0,84165,-1.098037667,36.97889017,12561800,0
2023-08-01-15:56:35,1327,-3.2,-0.61,10.24,-0.04,-0.11,-0.05,97.63,1537.63,0,84167,-1.098037667,36.97889017,20230601,0
2023-08-01-15:56:36,1328,-3.02,-0.66,10.39,-0.05,-0.09,-0.03,98.6,1538.6,-0.01,84162,-1.098168167,36.97882867,12561900,0
2023-08-01-15:56:37,1329,-2.24,1.32,9.76,1,0.12,0.12,99.57,1539.57,0.01,84148,-1.098168167,36.97882867,20230601,0
2023-08-01-15:56:37,1330,-5.46,-1.91,12.38,-1.87,-0.11,-0.57,100.63,1540.63,0.02,84156,-1.098295667,36.97876783,12562000,0
2023-08-01-15:56:38,1331,-2.98,-0.24,9.7,-0.09,0.07,-0.02,101.31,1541.31,0.01,84138,-1.0984295,36.97870317,12562100,0
2023-08-01-15:56:38,1332,-3.16,-0.38,10.25,-0.01,0.03,0,100.92,1540.92,0,84138,-1.0984295,36.97870317,20230601,0
2023-08-01-15:56:39,1333,-3.16,-0.33,10.8,-0.04,-0.04,-0.02,99.66,1539.66,-0.01,84131,-1.098563333,36.97863617,12562200,0
2023-08-01-15:56:39,1334,-3.31,-0.22,10.7,-0.03,-0.12,-0.01,95.99,1535.99,0,84185,-1.098703333,36.97857167,12562300,0
2023-08-01-15:56:40,1335,-2.81,-0.08,10.02,-0.06,0.1,-0.02,95.02,1535.02,-0.01,84192,-1.098703333,36.97857167,12562300,0
2023-08-01-15:56:40,1336,-3.34,-0.61,10.56,0.04,0,0,97.83,1537.83,0,84162,-1.098837,36.97850633,12562400,0
2023-08-01-15:56:41,1337,-2.6,-0.71,10.23,0.17,0.02,0.01,96.86,1536.86,0,84174,-1.098968167,36.97844,12562500,0
2023-08-01-15:56:41,1338,-2.64,-0.34,9.96,-0.03,0.02,-0.01,96.57,1536.57,0,84183,-1.099104,36.978375,12562600,0
2023-08-01-15:56:42,1339,-6.1,-1.38,12.13,0.17,-1.67,0.1,98.41,1538.41,0.01,84168,-1.099104,36.978375,12562600,0
2023-08-01-15:56:43,1340,-1.97,0.01,11.33,-0.04,0.02,0.02,98.31,1538.31,0,84165,-1.099245833,36.978316,12562700,0
2023-08-01-15:56:43,1341,-2.14,0.05,12.03,-0.03,0.01,0,98.41,1538.41,0,84163,-1.099245833,36.978316,20230601,0
2023-08-01-15:56:44,1342,-1.47,-0.18,11.97,0.01,0.24,-0.09,97.44,1537.44,-0.01,84160,-1.099394333,36.97825633,12562800,0
2023-08-01-15:56:45,1343,-1.74,0.24,11.6,-0.04,0,-0.02,98.41,1538.41,-0.01,84157,-1.099394333,36.97825633,20230601,0
2023-08-01-15:56:46,1344,-0.52,0.14,10.84,-0.04,0.19,-0.02,98.21,1538.21,-0.01,84163,-1.099537,36.978214,12562900,0
2023-08-01-15:56:47,1345,-0.74,0.18,10.77,-0.04,0.12,-0.03,98.79,1538.79,0,84152,-1.099537,36.978214,20230601,0
2023-08-01-15:56:47,1346,-0.52,0.16,11.25,-0.05,0.13,-0.02,98.31,1538.31,0.01,84167,-1.099822333,36.97810633,12563100,0
2023-08-01-15:56:48,1347,-0.71,0.15,10.92,-0.06,0.07,-0.02,98.31,1538.31,0,84162,-1.099822333,36.97810633,12563100,0
2023-08-01-15:56:48,1348,-0.47,0.4,10.81,-0.1,0.04,-0.02,99.47,1539.47,0.01,84150,-1.099961833,36.97804933,12563200,0
2023-08-01-15:56:49,1349,-0.55,0.13,11.15,-0.05,0.03,-0.02,98.6,1538.6,0,84154,-1.099961833,36.97804933,20230601,0
2023-08-01-15:56:50,1350,-0.4,0.3,11.37,-0.03,0.05,-0.02,99.08,1539.08,0,84160,-1.1001065,36.97799417,12563300,0
2023-08-01-15:56:51,1351,-0.58,0.01,10.67,-0.02,-0.07,-0.02,98.6,1538.6,0.01,84163,-1.1001065,36.97799417,20230601,0
2023-08-01-15:56:51,1352,-0.57,0.05,11.04,0.03,-0.09,-0.01,96.95,1536.95,0.04,84179,-1.100253167,36.97795017,12563400,0
2023-08-01-15:56:52,1353,-0.11,0.4,11.36,-0.06,0.12,0,95.99,1535.99,0.07,84234,-1.100403333,36.97788567,12563500,0
2023-08-01-15:56:53,1354,-0.66,-0.08,10.7,-0.03,0.01,-0.03,100.24,1540.24,0.02,84163,-1.100546833,36.97782967,12563600,0
2023-08-01-15:56:53,1355,-0.72,0.23,10.64,-0.04,-0.02,-0.03,101.41,1541.41,0,84120,-1.100546833,36.97782967,20230601,0
2023-08-01-15:56:54,1356,-0.27,0.1,10.32,-0.05,-0.02,-0.03,102.57,1542.57,0.02,84132,-1.100653333,36.97777183,12563700,0
2023-08-01-15:56:55,1357,-0.59,1.39,10.81,0.21,0.06,-1.59,98.79,1538.79,0,84145,-1.100653333,36.97777183,20230601,0
2023-08-01-15:56:55,1358,-0.52,1.67,10.71,0.06,-0.13,-1.4,100.05,1540.05,0.01,84151,-1.1007165,36.97772283,12563800,0
2023-08-01-15:56:56,1359,-1.02,1.74,10.23,0.1,-0.14,-0.67,98.31,1538.31,0,84157,-1.1007165,36.97772283,20230601,0
2023-08-01-15:56:57,1360,-2.35,1.46,10.85,0.01,-0.2,-0.41,96.28,1536.28,-0.01,84165,-1.1007545,36.97769333,12563900,0
2023-08-01-15:56:57,1361,-2.51,1.43,11.02,-0.04,-0.11,-0.24,96.08,1536.08,0,84196,-1.1007545,36.97769333,20230601,0
2023-08-01-15:56:58,1362,-2.71,0.59,10.07,0.02,-0.86,-0.09,97.73,1537.73,-0.01,84163,-1.100731333,36.97768183,12564000,0
2023-08-01-15:56:59,1363,-2.13,1.18,10.96,0.05,-0.19,0,95.89,1535.89,0,84178,-1.100745333,36.97767017,12564100,0
2023-08-01-15:56:59,1364,-1.47,0.85,11.13,-0.03,-0.08,-0.02,94.92,1534.92,0,84190,-1.100745333,36.97767017,20230601,0
2023-08-01-15:57:00,1365,-1.33,1.12,11.65,-0.18,-0.03,-0.03,93.67,1533.67,0,84206,-1.100746833,36.97767233,12564200,0
2023-08-01-15:57:01,1366,-0.87,1.12,10.91,-0.07,-0.08,-0.01,92.12,1532.12,0,84217,-1.100746833,36.97767233,20230601,0
2023-08-01-15:57:02,1367,-1.02,1.05,11.31,-0.1,-0.14,-0.03,92.51,1532.51,0.01,84229,-1.100754667,36.97766967,12564300,0
2023-08-01-15:57:02,1368,-0.79,0.97,11.25,0.01,0.05,-0.01,95.02,1535.02,0,84193,-1.100761333,36.97767317,12564400,0
2023-08-01-15:57:03,1369,-0.45,1.14,11.12,0.02,0.02,-0.02,96.66,1536.66,0,84187,-1.100761333,36.97767317,20230601,0
2023-08-01-15:57:04,1370,-0.73,0.85,10.9,-0.04,-0.05,-0.03,96.18,1536.18,0,84180,-1.100761333,36.97767317,20230601,0
2023-08-01-15:57:05,1371,0,1.18,10.96,-0.1,0,-0.02,95.21,1535.21,-0.01,84191,-1.100785667,36.977678,12564600,0
2023-08-01-15:57:05,1372,-0.74,1.31,10.94,0.01,0.26,-0.02,96.28,1536.28,0,84177,-1.100796833,36.9776795,12564700,0
2023-08-01-15:57:06,1373,0.65,1.24,11.16,-0.06,0.3,-0.06,95.21,1535.21,-0.01,84189,-1.100796333,36.977683,12564800,0
2023-08-01-15:57:07,1374,0.41,0.93,10.5,-0.01,0.04,-0.02,94.92,1534.92,-0.01,84183,-1.100796333,36.977683,12564800,0
2023-08-01-15:57:07,1375,0.59,1.18,10.65,0.03,-0.01,-0.01,94.54,1534.54,0,84202,-1.100800167,36.97768467,12564900,0
2023-08-01-15:57:08,1376,0.58,1.24,10.76,-0.04,0.03,-0.02,95.99,1535.99,0,84195,-1.100800167,36.97768467,12564900,0
2023-08-01-15:57:09,1377,0.52,1.22,10.64,-0.06,0,-0.02,95.89,1535.89,0.01,84188,-1.100795,36.97768883,12565000,0
2023-08-01-15:57:10,1378,0.3,1.19,10.79,-0.05,0.08,-0.02,98.41,1538.41,0.01,84167,-1.100799,36.97771033,12565100,0
2023-08-01-15:57:11,1379,0.36,1.3,11.01,-0.02,0.02,-0.01,96.86,1536.86,0.02,84188,-1.100814667,36.9777055,12565200,0
2023-08-01-15:57:12,1380,0.5,1.01,10.67,-0.08,0.04,-0.03,96.57,1536.57,0.01,84187,-1.100814667,36.9777055,20230601,0
2023-08-01-15:57:13,1381,0.46,1.29,10.36,-0.06,-0.01,-0.03,96.76,1536.76,0.01,84190,-1.100852833,36.97770917,12565300,0
2023-08-01-15:57:14,1382,0.39,1.04,10.62,-0.04,0.03,-0.01,98.31,1538.31,0,84161,-1.100852833,36.97770917,20230601,0
2023-08-01-15:57:14,1383,0.12,1.13,10.25,-0.09,-0.05,-0.03,97.63,1537.63,-0.01,84163,-1.100905333,36.97770933,12565400,0
2023-08-01-15:57:16,1384,0.87,0.94,10.97,-0.04,-0.07,-0.02,97.92,1537.92,-0.01,84162,-1.100952333,36.97769283,12565500,0
2023-08-01-15:57:17,1385,0.52,1.04,10.73,-0.07,0.06,-0.01,99.76,1539.76,0,84142,-1.101012167,36.97770717,12565600,0
2023-08-01-15:57:18,1386,0.61,0.84,10.76,-0.06,0.02,-0.02,98.99,1538.99,0.01,84161,-1.101085167,36.977735,12565700,0
2023-08-01-15:57:19,1387,0.62,1.25,11.26,-0.05,0.05,-0.01,98.79,1538.79,0,84153,-1.101085167,36.977735,20230601,0
2023-08-01-15:57:20,1388,0.3,0.44,11.04,-0.04,-0.06,-0.01,99.57,1539.57,0,84144,-1.1011735,36.9777345,12565800,0
2023-08-01-15:57:20,1389,0.38,0.9,10.95,-0.02,0.17,0,99.47,1539.47,0,84149,-1.1011735,36.9777345,20230601,0
