time_log,id,ax,ay,az,gx,gy,gz,AGL,altitude,velocity,pressure,latitude,longitude,time,state
2023-08-01-15:39:32,225,-0.95,0.89,11.02,-0.03,0.13,-0.01,24.66,1464.66,0.02,84929,-1.105977667,36.97589167,20230601,0
2023-08-01-15:39:32,226,-0.62,0.79,10.36,-0.1,0.03,-0.02,23.7,1463.7,0.01,84938,-1.105977667,36.97589167,20230601,0
2023-08-01-15:39:33,227,-0.76,0.79,10.66,-0.01,0.14,0,23.89,1463.89,0.02,84939,-1.105968667,36.97589683,12392800,0
2023-08-01-15:39:33,228,-0.74,0.61,10.39,-0.06,-0.06,0,24.37,1464.37,0.02,84947,-1.105968667,36.97589683,20230601,0
2023-08-01-15:39:33,229,-1.1,0.51,10.57,-0.05,-0.05,-0.02,23.12,1463.12,0,84944,-1.105968667,36.97589683,20230601,0
2023-08-01-15:39:33,230,-0.66,0.66,10.35,-0.08,0.06,-0.05,24.27,1464.27,0.01,84942,-1.105968667,36.97589683,20230601,0
2023-08-01-15:39:33,231,-0.81,0.79,10.98,-0.09,-0.01,-0.03,24.08,1464.08,89.46,84942,-1.105968667,36.97589683,20230601,0
2023-08-01-15:39:33,232,-0.94,0.68,10.4,-0.02,-0.05,-0.03,24.08,1464.08,-0.01,84945,-1.105962667,36.9759005,12392900,0
2023-08-01-15:39:34,233,-0.85,0.66,10.98,-0.02,-0.05,-0.02,23.6,1463.6,0,84926,-1.105962667,36.9759005,12392900,0
2023-08-01-15:39:34,234,-0.73,0.62,10.61,-0.08,0.04,-0.02,23.22,1463.22,-0.01,84940,-1.105962667,36.9759005,20230601,0
2023-08-01-15:39:34,235,-0.9,0.62,10.8,-0.07,-0.07,-0.03,23.12,1463.12,-0.02,84937,-1.105962667,36.9759005,20230601,0
2023-08-01-15:39:34,236,-1.05,0.64,10.37,-0.04,-0.05,-0.01,23.22,1463.22,-0.02,84933,-1.105962667,36.9759005,20230601,0
2023-08-01-15:39:34,237,-0.67,0.46,10.76,-0.03,0.05,-0.03,24.18,1464.18,0.01,84932,-1.1059565,36.97590067,12393000,0
2023-08-01-15:39:35,238,-0.83,0.84,10.46,-0.09,0.04,-0.02,23.79,1463.79,0,84929,-1.1059565,36.97590067,12393000,0
2023-08-01-15:39:35,239,-0.86,0.63,10.05,-0.05,0.05,-0.03,24.27,1464.27,0,84929,-1.1059565,36.97590067,20230601,0
2023-08-01-15:39:35,240,-0.9,0.72,11.02,-0.01,-0.06,-0.03,24.27,1464.27,0,84933,-1.1059565,36.97590067,20230601,0
2023-08-01-15:39:35,241,-0.73,0.67,10.09,-0.02,-0.05,-0.02,23.79,1463.79,-0.01,84919,-1.1059565,36.97590067,20230601,0
2023-08-01-15:39:35,242,-0.94,0.58,10.51,-0.05,0.03,-0.03,23.6,1463.6,-0.01,84930,-1.1059565,36.97590067,20230601,0
2023-08-01-15:39:35,243,-0.98,0.63,10.48,-0.03,-0.01,-0.02,23.6,1463.6,-0.02,84929,-1.105960333,36.97590217,12393100,0
2023-08-01-15:39:36,244,-1.03,0.66,10.71,-0.01,-0.03,-0.01,23.41,1463.41,-0.01,84926,-1.105960333,36.97590217,20230601,0
2023-08-01-15:39:36,245,-1.02,0.53,10.33,-0.03,-0.06,-0.01,23.22,1463.22,-0.02,84937,-1.105960333,36.97590217,20230601,0
2023-08-01-15:39:36,246,-0.85,0.48,10.76,-0.05,0.07,-0.02,23.41,1463.41,0,84933,-1.105960333,36.97590217,20230601,0
2023-08-01-15:39:36,247,-0.92,0.68,10.62,-0.06,-0.01,-0.01,24.95,1464.95,0.02,84930,-1.105960333,36.97590217,20230601,0
2023-08-01-15:39:36,248,-1.04,0.58,10.39,-0.05,-0.03,-0.02,23.7,1463.7,-0.01,84932,-1.10596,36.97589983,12393200,0
2023-08-01-15:39:36,249,-0.88,0.85,10.79,-0.06,-0.06,-0.02,23.31,1463.31,-0.01,84927,-1.10596,36.97589983,12393200,0
2023-08-01-15:39:37,250,-1.15,0.69,11.4,-0.09,0.06,-0.02,24.18,1464.18,49.98,84928,-1.10596,36.97589983,20230601,0
2023-08-01-15:39:37,251,-1.41,0.5,11.13,-0.04,0.12,-0.02,24.27,1464.27,0,84936,-1.10596,36.97589983,20230601,0
2023-08-01-15:39:37,252,-0.47,0.93,10.16,-0.01,-0.16,-0.02,24.27,1464.27,0.01,84919,-1.10596,36.97589983,20230601,0
2023-08-01-15:39:37,253,-1.28,0.64,11.38,-0.06,-0.04,-0.04,24.08,1464.08,0.24,84935,-1.10596,36.97589983,20230601,0
2023-08-01-15:39:37,254,-0.51,0.6,10.22,-0.06,0.06,-0.03,22.93,1462.93,-0.02,84930,-1.105968167,36.97589433,12393300,0
2023-08-01-15:39:37,255,-1.11,0.56,10.81,-0.02,-0.02,-0.03,24.56,1464.56,0.22,84913,-1.105968167,36.97589433,12393300,0
2023-08-01-15:39:38,256,-1.14,0.6,10.86,-0.03,-0.01,-0.03,24.47,1464.47,0,84927,-1.105968167,36.97589433,20230601,0
2023-08-01-15:39:38,257,-1.18,0.7,10.65,-0.07,0.01,-0.02,24.18,1464.18,0,84929,-1.105968167,36.97589433,20230601,0
2023-08-01-15:39:38,258,-0.8,0.66,10.52,0,0.05,-0.02,23.6,1463.6,0.01,84928,-1.105968167,36.97589433,20230601,0
2023-08-01-15:39:38,259,-0.86,0.85,10.75,0,-0.12,-0.02,24.18,1464.18,0.02,84941,-1.105968167,36.97589433,20230601,0
2023-08-01-15:39:38,260,-0.8,0.4,10.72,-0.05,0.16,-0.02,25.23,1465.23,0.01,84935,-1.1059745,36.975894,12393400,0
2023-08-01-15:39:39,261,-1.07,0.66,10.43,-0.07,-0.17,-0.03,23.6,1463.6,-0.01,84930,-1.1059745,36.975894,20230601,0
2023-08-01-15:39:39,262,-1.36,0.68,10.75,-0.04,-0.05,-0.02,23.7,1463.7,0,84942,-1.1059745,36.975894,20230601,0
2023-08-01-15:39:39,263,-0.99,0.71,10.81,-0.06,-0.13,-0.03,23.79,1463.79,0,84934,-1.1059745,36.975894,20230601,0
2023-08-01-15:39:39,264,-1.01,0.84,11.03,-0.09,0.3,-0.06,23.12,1463.12,-0.01,84933,-1.1059745,36.975894,20230601,0
2023-08-01-15:39:39,265,-0.83,0.91,10.57,-0.07,-0.03,-0.02,24.18,1464.18,0.01,84936,-1.105977333,36.9758925,12393500,0
2023-08-01-15:39:39,266,-1.26,0.49,10.58,-0.06,0.03,-0.01,23.12,1463.12,-0.01,84940,-1.105977333,36.9758925,12393500,0
2023-08-01-15:39:40,267,-0.68,0.44,10.45,-0.07,-0.11,-0.04,24.27,1464.27,0.02,84935,-1.105977333,36.9758925,20230601,0
2023-08-01-15:39:40,268,-0.89,0.86,10.93,-0.04,0.04,-0.02,23.41,1463.41,0,84945,-1.105977333,36.9758925,20230601,0
2023-08-01-15:39:40,269,-0.77,0.91,10.85,-0.06,0.05,-0.02,23.89,1463.89,87.88,84933,-1.105977333,36.9758925,20230601,0
2023-08-01-15:39:40,270,-0.92,0.77,10.43,-0.03,-0.01,-0.01,22.54,1462.54,-0.01,84943,-1.105977333,36.9758925,20230601,0
2023-08-01-15:39:40,271,-1.02,0.76,10.92,-0.04,-0.07,-0.02,24.47,1464.47,0,84938,-1.105982,36.97588767,12393600,0
2023-08-01-15:39:40,272,-0.53,0.5,10.34,-0.06,0.07,-0.03,23.79,1463.79,0.01,84936,-1.105982,36.97588767,20230601,0
2023-08-01-15:39:41,273,-1.51,0.73,10.54,-0.1,-0.1,-0.03,23.31,1463.31,0.01,84945,-1.105982,36.97588767,20230601,0
2023-08-01-15:39:41,274,-1.05,0.66,10.72,-0.05,0.08,-0.01,22.83,1462.83,0.28,84944,-1.105982,36.97588767,20230601,0
2023-08-01-15:39:41,275,-1.04,0.39,10.4,0,0.07,-0.01,24.47,1464.47,0.03,84941,-1.105982,36.97588767,20230601,0
2023-08-01-15:39:41,276,-0.76,0.75,10.65,-0.04,-0.06,-0.04,24.08,1464.08,0,84936,-1.105971667,36.975884,12393700,0
2023-08-01-15:39:41,277,-0.82,0.85,10.76,-0.04,-0.01,-0.02,23.6,1463.6,0.01,84934,-1.105971667,36.975884,12393700,0
2023-08-01-15:39:41,278,-1.16,0.8,10.83,-0.05,0.02,-0.01,23.6,1463.6,0,84935,-1.105971667,36.975884,20230601,0
2023-08-01-15:39:42,279,-0.64,0.63,10.53,-0.01,0.09,-0.01,22.74,1462.74,0,84941,-1.105971667,36.975884,20230601,0
2023-08-01-15:39:42,280,-0.83,0.87,10.85,0.02,-0.06,-0.02,23.12,1463.12,-0.01,84928,-1.105971667,36.975884,20230601,0
2023-08-01-15:39:42,281,-1.18,0.67,10.8,-0.08,0.01,-0.03,23.02,1463.02,-0.02,84929,-1.105971667,36.975884,20230601,0
2023-08-01-15:39:42,282,-1.38,0.67,10.81,-0.07,0.02,-0.03,24.47,1464.47,0.02,84942,-1.105969833,36.97588517,12393800,0
2023-08-01-15:39:42,283,-0.69,0.73,10.11,-0.06,-0.16,-0.04,22.74,1462.74,0,84944,-1.105969833,36.97588517,12393800,0
2023-08-01-15:39:43,284,-1.37,0.56,10.82,-0.04,0.13,-0.01,24.37,1464.37,0.02,84926,-1.105969833,36.97588517,20230601,0
2023-08-01-15:39:43,285,-0.85,0.58,10.34,-0.04,-0.12,-0.02,23.89,1463.89,0.05,84930,-1.105969833,36.97588517,20230601,0
2023-08-01-15:39:43,286,-1.29,0.54,10.66,-0.05,-0.1,-0.04,25.43,1465.43,0.03,84928,-1.105969833,36.97588517,20230601,0
2023-08-01-15:39:43,287,-0.73,0.7,10.52,-0.04,0.09,-0.02,23.79,1463.79,-0.01,84931,-1.105969833,36.97588517,20230601,0
2023-08-01-15:39:43,288,-0.98,0.59,10.52,0,0.15,-0.01,24.27,1464.27,0.01,84958,-1.105973833,36.975878,12393900,0
2023-08-01-15:39:44,289,-0.6,0.72,10.86,-0.07,-0.08,-0.03,25.04,1465.04,0.02,84924,-1.105973833,36.975878,20230601,0
2023-08-01-15:39:44,290,-0.93,0.7,10.87,-0.09,-0.05,-0.04,23.79,1463.79,0,84947,-1.105973833,36.975878,20230601,0
2023-08-01-15:39:44,291,-1.2,0.78,10.42,-0.03,0.09,-0.01,23.99,1463.99,0.04,84941,-1.105973833,36.975878,20230601,0
2023-08-01-15:39:44,292,-1.19,0.67,10.64,-0.07,0,-0.02,23.51,1463.51,-0.01,84942,-1.105973833,36.975878,20230601,0
2023-08-01-15:39:44,293,-0.48,0.7,10.51,-0.05,-0.06,-0.03,21.49,1461.49,0.01,84953,-1.105973833,36.975878,20230601,0
2023-08-01-15:39:44,294,-0.56,0.52,10.14,-0.04,-0.04,-0.01,24.66,1464.66,0.01,84933,-1.105975333,36.97587433,12394000,0
2023-08-01-15:39:45,295,-1.05,0.64,10.76,-0.03,0.01,-0.02,23.41,1463.41,0.01,84942,-1.105975333,36.97587433,12394000,0
2023-08-01-15:39:45,296,-0.68,0.89,10.5,-0.03,0.08,-0.02,22.54,1462.54,0,84934,-1.105975333,36.97587433,20230601,0
2023-08-01-15:39:45,297,-1.26,0.69,11.16,-0.06,-0.02,-0.02,23.41,1463.41,0,84940,-1.105975333,36.97587433,20230601,0
2023-08-01-15:39:45,298,-0.53,0.6,10.11,-0.12,0.02,-0.04,23.7,1463.7,0,84953,-1.105975333,36.97587433,20230601,0
2023-08-01-15:39:45,299,-0.7,0.76,10.61,-0.07,-0.04,-0.13,23.22,1463.22,0,84938,-1.105970667,36.97587467,12394100,0
2023-08-01-15:39:46,300,-0.44,0.74,10.63,-0.04,-0.02,-0.02,24.75,1464.75,0.02,84932,-1.105970667,36.97587467,12394100,0
2023-08-01-15:39:46,301,-1.17,0.75,10.62,0.02,-0.1,0,25.52,1465.52,48.07,84931,-1.105970667,36.97587467,20230601,0
2023-08-01-15:39:46,302,-0.85,0.79,10.45,-0.08,0.12,-0.01,24.85,1464.85,-0.01,84932,-1.105970667,36.97587467,20230601,0
2023-08-01-15:39:46,303,-0.75,0.89,10.75,-0.06,-0.02,-0.05,23.99,1463.99,0.01,84920,-1.105970667,36.97587467,20230601,0
2023-08-01-15:39:46,304,-1.8,1.06,21.07,0.01,-0.03,-0.01,25.23,1465.23,0,84926,-1.105970667,36.97587467,20230601,0
2023-08-01-15:39:46,305,-1.33,0.65,10.46,0,0.09,-0.02,23.7,1463.7,-0.02,84925,-1.105962333,36.97586867,12394200,0
2023-08-01-15:39:47,306,-1.12,0.77,10.83,-0.02,0.12,-0.02,23.79,1463.79,-0.02,84922,-1.105962333,36.97586867,12394200,0
2023-08-01-15:39:47,307,-0.94,1.07,11.33,-0.05,-0.05,-0.02,24.95,1464.95,0.01,84924,-1.105962333,36.97586867,20230601,0
2023-08-01-15:39:47,308,-0.92,0.96,11.5,-0.12,0.06,-0.02,24.37,1464.37,-0.01,84922,-1.105962333,36.97586867,20230601,0
2023-08-01-15:39:47,309,-0.45,0.9,11.16,-0.03,-0.07,-0.02,24.08,1464.08,0,84933,-1.105962333,36.97586867,20230601,0
2023-08-01-15:39:47,310,-0.68,0.83,11.15,-0.01,-0.03,-0.02,25.04,1465.04,0.01,84929,-1.105960667,36.97586883,12394300,0
2023-08-01-15:39:48,311,-1.08,0.75,11.88,-0.02,-0.02,-0.04,25.33,1465.33,0,84921,-1.105960667,36.97586883,12394300,0
2023-08-01-15:39:48,312,-1.47,0.81,11.61,-0.08,-0.08,-0.03,24.75,1464.75,-0.01,84921,-1.105960667,36.97586883,20230601,0
2023-08-01-15:39:48,313,-1.13,0.77,12.18,-0.06,0.13,-0.03,26.58,1466.58,0.01,84912,-1.105960667,36.97586883,20230601,0
2023-08-01-15:39:48,314,-0.95,0.92,11.91,0.03,-0.05,-0.01,26.67,1466.67,0,84894,-1.105960667,36.97586883,20230601,0
2023-08-01-15:39:48,315,-0.96,0.86,11.89,-0.04,0.08,0,26.96,1466.96,0,84901,-1.105960667,36.97586883,20230601,0
2023-08-01-15:39:48,316,-1.06,0.51,11.18,-0.05,-0.03,-0.03,27.92,1467.92,0.01,84900,-1.105962333,36.9758695,12394400,0
2023-08-01-15:39:49,317,-1.09,0.75,11.37,-0.14,0.02,-0.04,27.35,1467.35,-0.01,84901,-1.105962333,36.9758695,12394400,0
2023-08-01-15:39:49,318,-1.04,0.92,11.63,-0.02,-0.01,-0.05,26.58,1466.58,0,84901,-1.105962333,36.9758695,20230601,0
2023-08-01-15:39:49,319,-0.85,0.69,10.55,-0.03,0,-0.04,26.58,1466.58,-0.01,84903,-1.105962333,36.9758695,20230601,0
2023-08-01-15:39:49,320,-0.91,0.85,11.15,-0.06,0.03,-0.03,27.25,1467.25,0,84899,-1.105962333,36.9758695,20230601,0
2023-08-01-15:39:49,321,-0.83,0.71,10.42,-0.06,-0.01,-0.03,27.64,1467.64,-0.01,84897,-1.105962333,36.9758695,20230601,0
2023-08-01-15:39:49,322,-1.16,0.72,10.66,-0.02,0.01,-0.01,27.64,1467.64,0,84898,-1.1059655,36.9758715,12394500,0
2023-08-01-15:39:50,323,-1.09,0.65,10.65,-0.08,0.01,-0.02,27.73,1467.73,0.02,84894,-1.1059655,36.9758715,20230601,0
2023-08-01-15:39:50,324,-0.76,0.94,10.87,-0.05,0,-0.04,28.5,1468.5,0,84892,-1.1059655,36.9758715,20230601,0
2023-08-01-15:39:50,325,-0.76,0.62,10.63,-0.03,0.01,-0.04,28.4,1468.4,0,84881,-1.1059655,36.9758715,20230601,0
2023-08-01-15:39:50,326,-1.02,0.81,10.63,-0.06,-0.05,-0.01,29.94,1469.94,0.02,84878,-1.1059655,36.9758715,20230601,0
2023-08-01-15:39:50,327,-0.66,0.89,10.65,-0.04,-0.01,-0.03,29.85,1469.85,0,84877,-1.105966,36.97587167,12394600,0
2023-08-01-15:39:51,328,-1.15,0.53,10.66,-0.03,0,-0.03,30.9,1470.9,0.01,84865,-1.105966,36.97587167,12394600,0
2023-08-01-15:39:51,329,-0.9,0.8,11.09,-0.06,0,-0.04,30.81,1470.81,-0.01,84855,-1.105966,36.97587167,20230601,0
2023-08-01-15:39:51,330,-0.84,0.84,11.09,-0.06,0.01,-0.03,30.52,1470.52,-0.02,84851,-1.105966,36.97587167,20230601,0
2023-08-01-15:39:51,331,-0.78,0.87,10.71,-0.03,-0.04,-0.02,31.29,1471.29,0,84853,-1.105966,36.97587167,20230601,0
2023-08-01-15:39:51,332,-0.94,1.04,10.96,0,0.1,-0.01,32.15,1472.15,0.01,84852,-1.105966167,36.97587633,12394700,0
2023-08-01-15:39:51,333,-0.95,0.78,10.93,-0.01,-0.05,-0.02,32.34,1472.34,0.01,84845,-1.105966167,36.97587633,12394700,0
2023-08-01-15:39:52,334,-0.83,0.69,11.47,-0.08,0.11,-0.02,32.44,1472.44,0,84845,-1.105966167,36.97587633,20230601,0
2023-08-01-15:39:52,335,-0.46,0.97,11.11,-0.02,-0.1,-0.02,33.21,1473.21,0.07,84840,-1.105966167,36.97587633,20230601,0
2023-08-01-15:39:52,336,-1.26,0.7,10.59,0.01,0.1,0,33.02,1473.02,0,84843,-1.105966167,36.97587633,20230601,0
2023-08-01-15:39:52,337,-0.85,0.64,11.05,-0.06,0.17,-0.01,33.21,1473.21,0,84835,-1.105966167,36.97587633,20230601,0
2023-08-01-15:39:52,338,-0.43,0.79,11.06,-0.06,-0.14,-0.02,33.59,1473.59,0.01,84828,-1.1059655,36.97587633,12394800,0
2023-08-01-15:39:53,339,-1.19,0.61,10.67,-0.09,-0.07,-0.04,34.07,1474.07,0,84824,-1.1059655,36.97587633,12394800,0
2023-08-01-15:39:53,340,-0.88,0.74,10.92,-0.1,0.13,-0.03,35.04,1475.04,0.01,84813,-1.1059655,36.97587633,20230601,0
2023-08-01-15:39:53,341,-0.96,0.8,10.19,-0.05,0.04,-0.02,34.56,1474.56,-0.01,84818,-1.1059655,36.97587633,20230601,0
2023-08-01-15:39:53,342,-0.5,0.83,10.81,0.01,-0.12,-0.03,35.13,1475.13,0,84814,-1.1059655,36.97587633,20230601,0
2023-08-01-15:39:53,343,-0.99,0.74,10.49,-0.05,-0.09,-0.03,36.09,1476.09,0,84811,-1.105971333,36.9758745,12394900,0
2023-08-01-15:39:53,344,-1.22,0.72,10.42,-0.06,0.05,-0.03,36,1476,0.08,84805,-1.105971333,36.9758745,12394900,0
2023-08-01-15:39:54,345,-0.88,0.78,10.34,0.01,0.11,-0.02,35.81,1475.81,0,84808,-1.105971333,36.9758745,20230601,0
2023-08-01-15:39:54,346,-0.61,0.62,10.83,-0.06,-0.03,-0.04,36.57,1476.57,0,84803,-1.105971333,36.9758745,20230601,0
2023-08-01-15:39:54,347,-0.91,0.73,10.22,-0.11,0,-0.04,37.25,1477.25,0.01,84793,-1.105971333,36.9758745,20230601,0
2023-08-01-15:39:54,348,-1.05,0.8,10.41,-0.02,0.05,-0.03,38.21,1478.21,0.02,84789,-1.105971333,36.9758745,20230601,0
2023-08-01-15:39:54,349,-0.89,0.7,10.44,-0.02,0.06,-0.02,38.5,1478.5,0,84782,-1.105967167,36.97587233,12395000,0
2023-08-01-15:39:55,350,-0.94,0.71,10.63,-0.05,0.02,-0.02,38.98,1478.98,0.01,84773,-1.105967167,36.97587233,12395000,0
2023-08-01-15:39:55,351,-0.85,0.86,10.61,0,0,-0.01,38.79,1478.79,0,84774,-1.105967167,36.97587233,20230601,0
2023-08-01-15:39:55,352,-0.86,0.62,10.77,-0.03,-0.03,-0.04,39.36,1479.36,0.49,84777,-1.105967167,36.97587233,20230601,0
2023-08-01-15:39:55,353,-1.04,0.56,10.37,-0.14,0.03,-0.03,39.84,1479.84,0.01,84766,-1.105967167,36.97587233,20230601,0
2023-08-01-15:39:55,354,-0.78,0.93,10.78,-0.04,0.02,-0.02,40.71,1480.71,0.01,84760,-1.105967167,36.97587233,20230601,0
2023-08-01-15:39:55,355,-0.81,0.96,10.84,-0.01,0.07,-0.01,40.81,1480.81,0,84757,-1.1059695,36.97586967,12395100,0
2023-08-01-15:39:56,356,-0.93,0.79,10.95,0.01,0.04,-0.01,41.48,1481.48,0.01,84756,-1.1059695,36.97586967,20230601,0
2023-08-01-15:39:56,357,-0.73,0.92,11.14,-0.06,0.01,-0.01,41.58,1481.58,0,84749,-1.1059695,36.97586967,20230601,0
2023-08-01-15:39:56,358,-0.77,0.93,10.99,-0.09,-0.03,-0.01,42.54,1482.54,51.16,84746,-1.1059695,36.97586967,20230601,0
2023-08-01-15:39:56,359,-1.09,0.61,10.99,-0.04,-0.03,-0.02,42.54,1482.54,-0.01,84738,-1.1059695,36.97586967,20230601,0
2023-08-01-15:39:56,360,-0.88,0.79,10.69,-0.03,0.03,-0.03,43.4,1483.4,0.01,84727,-1.105974167,36.975866,12395200,0
2023-08-01-15:39:57,361,-0.9,0.53,10.67,-0.08,0,-0.04,43.89,1483.89,0.01,84728,-1.105974167,36.975866,12395200,0
2023-08-01-15:39:57,362,-1.02,0.84,10.45,-0.08,-0.07,-0.04,43.69,1483.69,0,84726,-1.105974167,36.975866,20230601,0
2023-08-01-15:39:57,363,-0.66,0.75,10.99,-0.04,-0.03,-0.03,44.46,1484.46,0.52,84719,-1.105974167,36.975866,20230601,0
2023-08-01-15:39:57,364,-0.87,0.96,10.59,-0.03,0.02,-0.04,44.37,1484.37,0,84718,-1.105974167,36.975866,20230601,0
2023-08-01-15:39:57,365,-0.86,0.76,10.85,-0.03,0.11,-0.02,44.46,1484.46,-0.01,84717,-1.105974167,36.975866,20230601,0
2023-08-01-15:39:58,366,-0.79,0.68,10.11,-0.04,0.06,-0.03,45.52,1485.52,0,84711,-1.105970167,36.97586133,12395300,0
2023-08-01-15:39:58,367,-0.74,0.87,10.19,-0.07,0.02,-0.03,45.91,1485.91,0,84704,-1.105970167,36.97586133,12395300,0
2023-08-01-15:39:58,368,-0.61,0.91,10.11,-0.1,0.02,-0.04,46.39,1486.39,0.01,84706,-1.105970167,36.97586133,20230601,0
2023-08-01-15:39:58,369,-0.73,0.82,10.43,0,0.01,-0.02,46.68,1486.68,0.21,84696,-1.105970167,36.97586133,20230601,0
2023-08-01-15:39:58,370,-0.85,0.84,10.23,0.03,0,0,47.83,1487.83,86.7,84689,-1.105970167,36.97586133,20230601,0
2023-08-01-15:39:58,371,-0.91,0.56,10.53,-0.05,0.02,-0.02,47.93,1487.93,0,84685,-1.105970167,36.97586133,20230601,0
2023-08-01-15:39:59,372,-1.2,0.86,10.77,-0.11,-0.01,-0.03,48.89,1488.89,0.01,84678,-1.1059635,36.97585833,12395400,0
2023-08-01-15:39:59,373,-0.61,1.09,11.37,-0.06,0.01,-0.04,49.66,1489.66,0.01,84671,-1.1059635,36.97585833,20230601,0
2023-08-01-15:39:59,374,-1.96,2.13,22.73,0.01,0,0,48.8,1488.8,0,84677,-1.1059635,36.97585833,20230601,0
2023-08-01-15:39:59,375,-1.11,0.96,10.83,0.03,0.1,0.01,50.05,1490.05,0,84673,-1.1059635,36.97585833,20230601,0
2023-08-01-15:39:59,376,-0.68,0.54,10.97,-0.01,-0.02,-0.02,50.62,1490.62,0.25,84667,-1.1059635,36.97585833,20230601,0
2023-08-01-15:39:59,377,-0.91,0.93,11.37,-0.14,-0.02,-0.05,50.82,1490.82,0,84654,-1.105957833,36.97585367,12395500,0
2023-08-01-15:40:00,378,-0.69,1.07,11.19,0,-0.05,-0.02,51.3,1491.3,0,84647,-1.105957833,36.97585367,20230601,0
2023-08-01-15:40:00,379,-0.87,0.9,10.7,0.03,-0.06,0,52.36,1492.36,0.01,84648,-1.105957833,36.97585367,20230601,0
2023-08-01-15:40:00,380,-0.82,0.97,11.03,-0.04,0,-0.02,52.65,1492.65,0,84638,-1.105957833,36.97585367,20230601,0
2023-08-01-15:40:00,381,-0.69,0.85,10.75,-0.03,0.06,-0.02,52.65,1492.65,0.01,84635,-1.105957833,36.97585367,20230601,0
2023-08-01-15:40:00,382,-0.65,0.74,11.03,-0.07,0.01,-0.04,53.22,1493.22,0,84631,-1.105957667,36.97585183,12395600,0
2023-08-01-15:40:00,383,-0.67,0.9,10.82,-0.1,-0.01,-0.02,53.42,1493.42,0,84624,-1.105957667,36.97585183,12395600,0
2023-08-01-15:40:01,384,-0.59,0.84,11,-0.07,-0.01,-0.03,53.61,1493.61,0,84620,-1.105957667,36.97585183,20230601,0
2023-08-01-15:40:01,385,-1,0.92,10.64,-0.03,0.05,-0.03,53.61,1493.61,-0.01,84620,-1.105957667,36.97585183,20230601,0
2023-08-01-15:40:01,386,-0.89,0.67,10.75,-0.01,-0.01,-0.01,54.09,1494.09,-0.01,84610,-1.105957667,36.97585183,20230601,0
2023-08-01-15:40:01,387,-0.85,0.73,10.75,-0.05,0.04,-0.01,55.44,1495.44,0,84610,-1.105957667,36.97585183,20230601,0
2023-08-01-15:40:01,388,-0.47,0.85,10.88,-0.08,-0.03,-0.01,56.31,1496.31,92.08,84605,-1.105955333,36.97584983,12395700,0
2023-08-01-15:40:02,389,-1.03,0.85,10.65,-0.02,-0.03,0,55.63,1495.63,0,84600,-1.105955333,36.97584983,20230601,0
2023-08-01-15:40:02,390,-1.04,0.73,10.38,0.01,0.01,-0.01,56.69,1496.69,-0.01,84596,-1.105955333,36.97584983,20230601,0
2023-08-01-15:40:02,391,-0.6,0.87,10.66,0.02,0.05,-0.03,57.75,1497.75,0.29,84591,-1.105955333,36.97584983,20230601,0
2023-08-01-15:40:02,392,-0.69,0.92,11.09,0,0.04,-0.02,57.66,1497.66,0,84586,-1.105955333,36.97584983,20230601,0
2023-08-01-15:40:02,393,-0.57,0.67,10.78,-0.11,0.02,-0.02,58.14,1498.14,0,84579,-1.105961667,36.97585267,12395800,0
2023-08-01-15:40:03,394,-0.8,0.75,10.84,-0.15,-0.01,-0.03,58.72,1498.72,0,84574,-1.105961667,36.97585267,12395800,0
2023-08-01-15:40:03,395,-0.69,0.88,10.56,-0.05,0,-0.01,59.2,1499.2,0,84569,-1.105961667,36.97585267,20230601,0
2023-08-01-15:40:03,396,-0.85,0.86,10.59,-0.01,-0.02,-0.01,59.78,1499.78,-0.01,84559,-1.105961667,36.97585267,20230601,0
2023-08-01-15:40:03,397,-0.89,0.71,10.73,-0.1,-0.02,-0.04,60.74,1500.74,0,84554,-1.105961667,36.97585267,20230601,0
2023-08-01-15:40:03,398,-0.8,0.93,10.76,-0.08,0.06,-0.04,61.32,1501.32,0.01,84543,-1.105963167,36.9758535,12395900,0
2023-08-01-15:40:03,399,-0.61,0.83,10.45,0,0.03,-0.01,62.28,1502.28,0,84541,-1.105963167,36.9758535,12395900,0
2023-08-01-15:40:04,400,-0.7,0.94,11.15,-0.01,0.03,-0.03,62.67,1502.67,0.01,84532,-1.105963167,36.9758535,20230601,0
2023-08-01-15:40:04,401,-0.69,0.89,10.51,0.02,0.02,0,62.96,1502.96,0,84529,-1.105963167,36.9758535,20230601,0
2023-08-01-15:40:04,402,-0.71,0.67,10.93,-0.26,-0.03,-0.11,63.34,1503.34,0.33,84519,-1.105963167,36.9758535,20230601,0
2023-08-01-15:40:04,403,-0.59,1.14,11.01,-0.04,0.04,-0.02,63.34,1503.34,0,84527,-1.105963167,36.9758535,20230601,0
2023-08-01-15:40:04,404,-0.57,0.88,10.97,-0.04,0.04,-0.03,63.05,1503.05,0.01,84526,-1.105959167,36.97585,12400000,0
2023-08-01-15:40:04,405,-0.55,1.04,11.18,-0.01,-0.01,-0.03,64.02,1504.02,0.01,84523,-1.105959167,36.97585,12400000,0
2023-08-01-15:40:05,406,-0.87,0.68,11.01,-0.04,0.02,-0.04,63.92,1503.92,0,84522,-1.105959167,36.97585,20230601,0
2023-08-01-15:40:05,407,-0.55,0.95,11,-0.09,-0.04,-0.04,64.5,1504.5,0.01,84517,-1.105959167,36.97585,20230601,0
2023-08-01-15:40:05,408,-1.02,0.85,10.63,-0.04,-0.03,-0.01,64.5,1504.5,0.32,84513,-1.105959167,36.97585,20230601,0
2023-08-01-15:40:05,409,-0.41,0.62,10.29,-0.02,0.01,-0.05,64.6,1504.6,0,84512,-1.105959167,36.97585,20230601,0
2023-08-01-15:40:05,410,-0.58,0.7,9.5,-0.08,-0.06,-0.05,64.98,1504.98,0,84516,-1.105954833,36.975849,12400100,0
2023-08-01-15:40:06,411,-0.51,0.65,7.71,-0.08,-0.1,-0.04,64.98,1504.98,0,84497,-1.105954833,36.975849,12400100,0
2023-08-01-15:40:06,412,-0.51,0.62,7.21,-0.03,0,-0.04,64.41,1504.41,92.11,84511,-1.105954833,36.975849,20230601,0
2023-08-01-15:40:06,413,-0.5,0.79,6.62,0.04,0.05,-0.02,64.5,1504.5,0.28,84512,-1.105954833,36.975849,20230601,0
2023-08-01-15:40:06,414,-0.52,0.51,7.18,0.01,0.08,-0.03,64.79,1504.79,-0.01,84513,-1.105954833,36.975849,20230601,0
2023-08-01-15:40:06,415,-0.44,0.66,9.05,-0.12,0.12,-0.01,65.08,1505.08,0,84526,-1.105953333,36.97585117,12400200,0
2023-08-01-15:40:06,416,-0.22,0.76,9.25,-0.14,0.05,0,64.21,1504.21,0,84502,-1.105953333,36.97585117,12400200,0
2023-08-01-15:40:07,417,-1.1,0.86,10.64,0.07,0.09,0.04,63.83,1503.83,-0.02,84512,-1.105953333,36.97585117,20230601,0
2023-08-01-15:40:07,418,-0.22,0.61,10.55,-0.01,0.16,0.01,65.95,1505.95,0.01,84513,-1.105953333,36.97585117,20230601,0
2023-08-01-15:40:07,419,-0.67,0.88,10.44,-0.07,-0.17,-0.01,65.85,1505.85,92.08,84488,-1.105953333,36.97585117,20230601,0
2023-08-01-15:40:07,420,-0.88,1.04,11.22,-0.07,0.04,-0.01,65.66,1505.66,-0.02,84519,-1.105953333,36.97585117,20230601,0
2023-08-01-15:40:07,421,-0.41,0.75,10.49,-0.05,0.09,-0.03,65.08,1505.08,0.01,84502,-1.105951333,36.97584717,12400300,0
2023-08-01-15:40:08,422,-0.68,0.75,10.47,-0.07,0.12,-0.03,66.04,1506.04,0,84504,-1.105951333,36.97584717,12400300,0
2023-08-01-15:40:08,423,-1.55,0.51,11.29,-0.02,-0.05,-0.04,66.14,1506.14,0.01,84513,-1.105951333,36.97584717,20230601,0
2023-08-01-15:40:08,424,-0.15,1.01,10.1,-0.04,-0.04,-0.06,63.54,1503.54,-0.02,84510,-1.105951333,36.97584717,20230601,0
2023-08-01-15:40:08,425,-0.78,0.85,11.32,-0.07,0.06,-0.02,64.02,1504.02,0.02,84519,-1.105951333,36.97584717,20230601,0
2023-08-01-15:40:08,426,-0.45,0.92,10.53,0,-0.08,-0.01,65.56,1505.56,0,84496,-1.105951333,36.97584717,20230601,0
2023-08-01-15:40:08,427,-0.64,0.89,11.22,-0.02,0.05,0,64.79,1504.79,0.01,84505,-1.105950667,36.97583433,12400400,0
2023-08-01-15:40:09,428,-0.8,0.84,11.19,-0.08,0.11,-0.03,64.02,1504.02,-0.02,84509,-1.105950667,36.97583433,20230601,0
2023-08-01-15:40:09,429,-0.92,0.66,10.11,-0.11,-0.06,-0.05,64.5,1504.5,0,84512,-1.105950667,36.97583433,20230601,0
2023-08-01-15:40:09,430,-1.03,0.77,10.44,-0.1,-0.01,-0.03,64.31,1504.31,92.01,84517,-1.105950667,36.97583433,20230601,0
2023-08-01-15:40:09,431,-0.75,0.99,10.68,0,-0.06,-0.03,64.02,1504.02,0,84521,-1.105950667,36.97583433,20230601,0
2023-08-01-15:40:09,432,-1.27,0.89,10.42,-0.04,0.04,-0.02,64.21,1504.21,-0.01,84513,-1.105955167,36.97582,12400500,0
2023-08-01-15:40:10,433,-0.6,0.72,10.64,-0.04,0.02,-0.02,64.41,1504.41,0,84512,-1.105955167,36.97582,12400500,0
2023-08-01-15:40:10,434,-1.05,0.31,10.7,-0.04,0.06,-0.04,65.85,1505.85,0.01,84497,-1.105955167,36.97582,20230601,0
2023-08-01-15:40:10,435,-0.65,0.88,10.58,-0.1,0.02,-0.05,66.62,1506.62,0,84489,-1.105955167,36.97582,20230601,0
2023-08-01-15:40:10,436,-1.15,0.74,11,0.02,0.09,0.01,67.97,1507.97,0.02,84487,-1.105955167,36.97582,20230601,0
2023-08-01-15:40:10,437,-1.26,1.02,12.45,0,0.01,0.01,68.26,1508.26,0,84473,-1.105955167,36.97582,20230601,0
2023-08-01-15:40:10,438,-1.02,0.83,13.42,-0.08,0.07,-0.01,69.23,1509.23,0.01,84461,-1.105960167,36.97581083,12400600,0
2023-08-01-15:40:11,439,-1.34,1.56,14.78,-0.05,0.02,0.02,70.19,1510.19,0.26,84454,-1.105960167,36.97581083,20230601,0
2023-08-01-15:40:11,440,-1.35,0.92,14.38,0.09,-0.03,0.02,70.48,1510.48,0,84455,-1.105960167,36.97581083,20230601,0
2023-08-01-15:40:11,441,-1.36,0.74,14.3,-0.08,-0.1,-0.02,71.93,1511.93,0.01,84441,-1.105960167,36.97581083,20230601,0
2023-08-01-15:40:11,442,-1.44,1.41,13.9,-0.07,0,-0.05,72.41,1512.41,0,84435,-1.105960167,36.97581083,20230601,0
2023-08-01-15:40:11,443,-1.06,1.34,12.89,-0.05,0.16,-0.06,73.38,1513.38,0.25,84424,-1.105949667,36.97581633,12400700,0
2023-08-01-15:40:11,444,-0.74,1.07,12.62,0,0,-0.02,74.34,1514.34,0.01,84416,-1.105949667,36.97581633,12400700,0
2023-08-01-15:40:12,445,-1.19,0.91,11.12,-0.02,-0.03,-0.04,74.83,1514.83,0,84411,-1.105949667,36.97581633,20230601,0
2023-08-01-15:40:12,446,-0.86,0.91,11.08,-0.01,0.07,-0.05,76.56,1516.56,0.02,84393,-1.105949667,36.97581633,20230601,0
2023-08-01-15:40:12,447,-1.12,0.56,10.56,-0.1,0,-0.05,76.76,1516.76,0,84389,-1.105949667,36.97581633,20230601,0
2023-08-01-15:40:12,448,-0.84,0.72,10.61,-0.14,0.08,-0.05,77.43,1517.43,0,84374,-1.105949667,36.97581633,20230601,0
2023-08-01-15:40:12,449,-0.92,0.74,10.87,-0.09,0.03,-0.03,77.62,1517.62,-0.01,84379,-1.105943,36.97582267,12400800,0
2023-08-01-15:40:13,450,-1.11,0.79,11.1,-0.03,0.07,-0.03,78.98,1518.98,0,84362,-1.105943,36.97582267,20230601,0
2023-08-01-15:40:13,451,-1.02,0.43,10.79,-0.03,-0.04,-0.01,79.65,1519.65,0.01,84354,-1.105943,36.97582267,20230601,0
2023-08-01-15:40:13,452,-1.13,0.72,10.98,-0.1,-0.07,-0.03,81,1521,0.01,84350,-1.105943,36.97582267,20230601,0
2023-08-01-15:40:13,453,-1.21,0.88,10.38,-0.08,0.02,-0.02,80.62,1520.62,0,84342,-1.105943,36.97582267,20230601,0
2023-08-01-15:40:13,454,-0.91,1.02,11.21,0.03,0.06,-0.01,81.78,1521.78,0,84335,-1.105943,36.97582267,20230601,0
2023-08-01-15:40:13,455,-1.3,0.57,11.46,0.02,-0.01,-0.01,82.36,1522.36,0,84330,-1.105941,36.9758205,12400900,0
2023-08-01-15:40:14,456,-0.94,0.67,11.36,-0.09,0.02,-0.01,83.42,1523.42,0.01,84317,-1.105941,36.9758205,20230601,0
2023-08-01-15:40:14,457,-0.97,0.94,10.68,-0.07,-0.05,-0.02,84,1524,0.01,84302,-1.105941,36.9758205,20230601,0
2023-08-01-15:40:14,458,-0.9,0.77,10.47,0.01,-0.02,-0.01,85.74,1525.74,0.01,84300,-1.105941,36.9758205,20230601,0
2023-08-01-15:40:14,459,-0.91,0.91,11.09,0.01,-0.06,-0.03,85.26,1525.26,0.01,84294,-1.105941,36.9758205,20230601,0
2023-08-01-15:40:14,460,-0.76,0.78,10.69,-0.04,0.02,-0.04,86.51,1526.51,0,84282,-1.105935,36.975821,12401000,0
2023-08-01-15:40:15,461,-0.99,0.88,10.66,-0.09,-0.01,-0.03,87.09,1527.09,90.89,84276,-1.105935,36.975821,12401000,0
2023-08-01-15:40:15,462,0,0,0,0,0,0,88.16,1528.16,0,84263,-1.105935,36.975821,20230601,0
2023-08-01-15:40:15,463,-0.91,0.9,10.43,-0.02,0.01,-0.03,89.32,1529.32,0.01,84261,-1.105935,36.975821,20230601,0
2023-08-01-15:40:15,464,-0.61,0.87,10.83,-0.05,0.05,-0.03,90.09,1530.09,0.01,84252,-1.105935,36.975821,20230601,0
2023-08-01-15:40:15,465,-1.28,0.72,10.51,-0.05,0,-0.03,90.38,1530.38,0,84243,-1.105923167,36.97582917,12401100,0
2023-08-01-15:40:15,466,-1.02,0.91,10.31,-0.05,-0.1,-0.02,91.35,1531.35,0,84233,-1.105923167,36.97582917,12401100,0
2023-08-01-15:40:16,467,-1.23,1.01,11,-0.04,0.03,-0.02,92.51,1532.51,0,84229,-1.105923167,36.97582917,20230601,0
2023-08-01-15:40:16,468,0,0,0,0,0,0,93.09,1533.09,0,84220,-1.105923167,36.97582917,20230601,0
2023-08-01-15:40:16,469,-0.75,0.94,10.26,-0.02,0,-0.02,94.05,1534.05,0,84206,-1.105923167,36.97582917,20230601,0
2023-08-01-15:40:16,470,-1.06,0.78,10.3,-0.01,-0.03,-0.02,95.12,1535.12,0.01,84201,-1.105923167,36.97582917,20230601,0
2023-08-01-15:40:16,471,-0.94,1.03,10.53,-0.01,0.05,-0.03,95.21,1535.21,0,84195,-1.105912,36.975826,12401200,0
2023-08-01-15:40:17,472,-0.98,0.64,10.38,0.02,0.01,-0.03,96.95,1536.95,0.01,84177,-1.105912,36.975826,20230601,0
2023-08-01-15:40:17,473,-0.85,0.67,10.51,-0.08,0.02,-0.03,97.73,1537.73,0.01,84169,-1.105912,36.975826,20230601,0
2023-08-01-15:40:17,474,-0.86,0.65,10.37,-0.16,-0.02,-0.01,98.02,1538.02,0.01,84171,-1.105912,36.975826,20230601,0
2023-08-01-15:40:17,475,-1.44,0.79,10.53,-0.01,0,0,99.76,1539.76,0.01,84160,-1.105912,36.975826,20230601,0
2023-08-01-15:40:17,476,-1.48,0.61,10.53,0,0.04,0,100.05,1540.05,0,84145,-1.105912,36.975826,20230601,0
2023-08-01-15:40:17,477,-1.31,0.77,10.43,-0.03,0.13,-0.01,100.63,1540.63,0.62,84142,-1.105910333,36.97582,12401300,0
2023-08-01-15:40:18,478,-1.09,0.61,10.69,0.01,0.05,-0.02,101.6,1541.6,0.01,84132,-1.105910333,36.97582,20230601,0
2023-08-01-15:40:18,479,-1.01,0.4,10.79,-0.09,-0.04,-0.07,102.66,1542.66,0.01,84119,-1.105910333,36.97582,20230601,0
2023-08-01-15:40:18,480,-1.01,0.64,10.44,-0.14,-0.06,-0.03,103.44,1543.44,0.01,84110,-1.105910333,36.97582,20230601,0
2023-08-01-15:40:18,481,-0.92,0.88,10.75,0.02,-0.01,-0.01,104.31,1544.31,0.01,84101,-1.105910333,36.97582,20230601,0
2023-08-01-15:40:18,482,-0.87,0.89,10.91,0.06,0.03,-0.02,105.38,1545.38,0.01,84089,-1.105908,36.97580867,12401400,0
2023-08-01-15:40:19,483,-1.11,0.38,10.49,0.01,0.04,-0.03,105.67,1545.67,0.01,84090,-1.105908,36.97580867,12401400,0
2023-08-01-15:40:19,484,-1.07,0.46,10.61,-0.09,0.02,-0.03,105.96,1545.96,0,84089,-1.105908,36.97580867,20230601,0
2023-08-01-15:40:19,485,-1.26,0.75,10.44,-0.15,-0.02,-0.04,106.05,1546.05,0,84081,-1.105908,36.97580867,20230601,0
2023-08-01-15:40:19,486,-0.95,1,10.91,-0.05,0.05,-0.02,106.15,1546.15,-0.01,84081,-1.105908,36.97580867,20230601,0
2023-08-01-15:40:19,487,-0.83,0.72,10.7,-0.01,0.09,-0.01,106.25,1546.25,0,84083,-1.105908,36.97580867,20230601,0
2023-08-01-15:40:19,488,-0.51,0.64,10.66,-0.09,-0.04,-0.07,107.12,1547.12,0,84080,-1.105902,36.97580467,12401500,0
2023-08-01-15:40:20,489,-0.73,0.79,9.29,-0.01,-0.1,-0.03,105.96,1545.96,-0.01,84081,-1.105902,36.97580467,12401500,0
2023-08-01-15:40:20,490,-0.69,0.48,8,-0.06,-0.09,-0.06,105.57,1545.57,-0.01,84088,-1.105902,36.97580467,20230601,0
2023-08-01-15:40:20,491,-1.01,0.72,7.32,-0.07,-0.03,-0.05,105.08,1545.08,-0.02,84091,-1.105902,36.97580467,20230601,0
2023-08-01-15:40:20,492,-0.43,0.44,6.74,-0.05,0.06,-0.05,105.67,1545.67,-0.01,84085,-1.105902,36.97580467,20230601,0
2023-08-01-15:40:20,493,-0.5,0.34,6.91,-0.01,0.05,-0.03,105.28,1545.28,-0.01,84083,-1.105906833,36.9757995,12401600,0
2023-08-01-15:40:21,494,-0.44,0.49,6.25,0.03,0.03,0.01,105.18,1545.18,0,84091,-1.105906833,36.9757995,12401600,0
2023-08-01-15:40:21,495,-0.37,0.53,6.66,0.01,0.05,-0.01,105.08,1545.08,-0.01,84094,-1.105906833,36.9757995,20230601,0
2023-08-01-15:40:21,496,-0.74,0.72,7.8,-0.08,0.05,-0.01,105.38,1545.38,-0.01,84091,-1.105906833,36.9757995,20230601,0
2023-08-01-15:40:21,497,-0.65,0.83,9.09,-0.05,0.06,0.01,105.28,1545.28,-0.01,84093,-1.105906833,36.9757995,20230601,0
2023-08-01-15:40:21,498,-0.68,0.85,9.79,-0.07,-0.12,0,104.99,1544.99,0,84090,-1.105906833,36.9757995,20230601,0
2023-08-01-15:40:21,499,-1.26,0.72,10.52,-0.05,-0.05,0,105.86,1545.86,0,84083,-1.105905167,36.975792,12401700,0
2023-08-01-15:40:22,500,-0.99,1.12,11.5,-0.08,-0.04,0,105.96,1545.96,0.01,84087,-1.105905167,36.975792,12401700,0
2023-08-01-15:40:22,501,-0.73,1.15,11.15,0.02,-0.02,-0.01,106.83,1546.83,0.01,84081,-1.105905167,36.975792,20230601,0
2023-08-01-15:40:22,502,-0.93,0.9,10.92,-0.04,-0.05,-0.03,105.38,1545.38,-0.01,84075,-1.105905167,36.975792,20230601,0
2023-08-01-15:40:22,503,-1.01,1.03,10.89,-0.03,0,-0.03,106.34,1546.34,0.01,84076,-1.105905167,36.975792,20230601,0
2023-08-01-15:40:22,504,-0.98,0.95,10.84,-0.03,-0.01,-0.02,105.96,1545.96,0,84082,-1.105905167,36.975792,20230601,0
2023-08-01-15:40:23,505,-0.68,0.87,10.88,0,0.08,-0.02,105.38,1545.38,-0.02,84080,-1.1059,36.975786,12401800,0
2023-08-01-15:40:23,506,-0.98,0.97,10.52,-0.09,0.04,-0.02,106.83,1546.83,0.01,84082,-1.1059,36.975786,20230601,0
2023-08-01-15:40:23,507,-1.11,1.17,10.86,-0.04,0.02,-0.02,106.92,1546.92,0,84077,-1.1059,36.975786,20230601,0
2023-08-01-15:40:23,508,-0.59,0.9,10.55,-0.02,0.08,-0.02,105.57,1545.57,-0.01,84076,-1.1059,36.975786,20230601,0
2023-08-01-15:40:23,509,-0.84,0.8,10.49,-0.06,-0.03,-0.02,106.83,1546.83,0,84077,-1.1059,36.975786,20230601,0
2023-08-01-15:40:23,510,-1.06,0.99,10.52,-0.07,-0.02,-0.02,106.34,1546.34,0,84078,-1.105898833,36.9757825,12401900,0
2023-08-01-15:40:24,511,-1.04,0.83,10.52,-0.08,0.05,-0.03,106.44,1546.44,0,84075,-1.105898833,36.9757825,12401900,0
2023-08-01-15:40:24,512,-0.87,0.77,10.51,-0.02,0.02,-0.03,106.15,1546.15,-0.01,84077,-1.105898833,36.9757825,20230601,0
2023-08-01-15:40:24,513,-0.87,0.91,10.48,-0.03,-0.03,-0.02,107.12,1547.12,0,84069,-1.105898833,36.9757825,20230601,0
2023-08-01-15:40:24,514,-1.13,0.88,10.63,-0.07,-0.06,-0.03,106.73,1546.73,-0.01,84076,-1.105898833,36.9757825,20230601,0
2023-08-01-15:40:24,515,-0.76,0.92,10.66,-0.08,0.08,-0.03,106.92,1546.92,0.01,84081,-1.105905167,36.97578217,12402000,0
2023-08-01-15:40:25,516,-0.65,1.08,10.41,-0.04,-0.01,-0.03,105.67,1545.67,-0.01,84076,-1.105905167,36.97578217,12402000,0
2023-08-01-15:40:25,517,-0.79,0.99,10.76,-0.04,-0.01,-0.01,105.57,1545.57,0,84087,-1.105905167,36.97578217,20230601,0
2023-08-01-15:40:25,518,-1.04,1.05,10.78,-0.08,-0.03,-0.01,104.99,1544.99,-0.01,84083,-1.105905167,36.97578217,20230601,0
2023-08-01-15:40:25,519,-1.16,0.96,10.68,-0.04,0.02,-0.01,105.57,1545.57,0,84086,-1.105905167,36.97578217,20230601,0
2023-08-01-15:40:25,520,-0.93,1,10.38,-0.01,0.01,-0.02,104.41,1544.41,-0.02,84092,-1.105905167,36.97578217,20230601,0
2023-08-01-15:40:25,521,-0.84,0.95,10.81,0,-0.01,-0.03,104.5,1544.5,-0.02,84089,-1.105905,36.975773,12402100,0
2023-08-01-15:40:26,522,-0.81,0.81,10.92,-0.09,0.1,-0.03,105.96,1545.96,0,84086,-1.105905,36.975773,20230601,0
2023-08-01-15:40:26,523,-0.64,0.99,10.17,-0.09,-0.04,-0.03,104.89,1544.89,-0.01,84090,-1.105905,36.975773,20230601,0
2023-08-01-15:40:26,524,-0.8,0.97,9.91,-0.01,0.02,-0.04,105.28,1545.28,0.01,84093,-1.105905,36.975773,20230601,0
2023-08-01-15:40:26,525,-0.81,0.88,9.77,-0.02,0.08,-0.03,104.7,1544.7,0,84096,-1.105905,36.975773,20230601,0
2023-08-01-15:40:26,526,-0.98,0.99,10.22,-0.09,0.31,-0.04,104.31,1544.31,0,84094,-1.105907333,36.97578,12402200,0
2023-08-01-15:40:26,527,-0.78,0.97,9.51,-0.05,-0.07,-0.02,104.41,1544.41,0,84103,-1.105907333,36.97578,12402200,0
2023-08-01-15:40:27,528,-1.04,0.92,9.87,-0.04,0.12,-0.02,102.95,1542.95,-0.02,84108,-1.105907333,36.97578,20230601,0
2023-08-01-15:40:27,529,-1.04,1.1,9.78,-0.04,-0.06,-0.01,102.76,1542.76,-0.01,84108,-1.105907333,36.97578,20230601,0
2023-08-01-15:40:27,530,-0.88,0.89,10.31,-0.05,0.09,-0.02,103.15,1543.15,0.01,84113,-1.105907333,36.97578,20230601,0
2023-08-01-15:40:27,531,-0.82,0.79,9.5,-0.04,0.07,-0.01,102.28,1542.28,-0.01,84118,-1.105907333,36.97578,20230601,0
2023-08-01-15:40:27,532,-0.96,0.95,10.56,-0.08,-0.03,0,101.6,1541.6,-0.01,84130,-1.1059045,36.975776,12402300,0
2023-08-01-15:40:28,533,-0.56,1.08,10.17,-0.08,-0.1,-0.02,102.37,1542.37,0.01,84124,-1.1059045,36.975776,20230601,0
2023-08-01-15:40:28,534,-1.02,1,10.9,0,-0.07,-0.01,102.57,1542.57,0.01,84126,-1.1059045,36.975776,20230601,0
2023-08-01-15:40:28,535,-0.99,1.15,10.94,0,0.05,-0.02,101.41,1541.41,-0.01,84121,-1.1059045,36.975776,20230601,0
2023-08-01-15:40:28,536,-0.38,0.8,10.42,0,0.01,-0.04,101.6,1541.6,0,84130,-1.1059045,36.975776,20230601,0
2023-08-01-15:40:28,537,-0.61,0.78,10.42,-0.07,-0.11,-0.05,98.7,1538.7,-0.02,84156,-1.105892,36.9757575,12402400,0
2023-08-01-15:40:28,538,-1.28,0.88,11.11,-0.09,0.01,-0.02,98.6,1538.6,0.01,84163,-1.105892,36.9757575,12402400,0
2023-08-01-15:40:29,539,-0.74,1.05,10.74,0,0.09,0.01,98.5,1538.5,0,84162,-1.105892,36.9757575,20230601,0
2023-08-01-15:40:29,540,-1.18,1.44,10.88,0.03,-0.08,-0.02,99.76,1539.76,0.02,84142,-1.105892,36.9757575,20230601,0
2023-08-01-15:40:29,541,-1.11,0.85,10.19,-0.05,-0.05,-0.03,98.41,1538.41,0,84166,-1.105892,36.9757575,20230601,0
2023-08-01-15:40:29,542,-1.12,0.88,10.18,-0.1,0.19,-0.03,97.25,1537.25,50.24,84167,-1.105892,36.9757575,20230601,0
2023-08-01-15:40:29,543,-0.51,1.11,10.06,-0.09,0.13,-0.03,97.15,1537.15,0,84175,-1.1058885,36.975752,12402500,0
2023-08-01-15:40:30,544,-0.73,0.63,10.04,0,-0.11,-0.03,97.25,1537.25,-0.01,84168,-1.1058885,36.975752,12402500,0
2023-08-01-15:40:30,545,-0.89,0.72,10.43,-0.04,-0.03,-0.02,96.57,1536.57,-0.02,84170,-1.1058885,36.975752,20230601,0
2023-08-01-15:40:30,546,-0.92,0.75,10.18,-0.05,0.06,-0.01,98.31,1538.31,0.01,84168,-1.1058885,36.975752,20230601,0
2023-08-01-15:40:30,547,-0.94,1.53,10.92,-0.09,-0.04,-0.03,97.73,1537.73,0,84160,-1.1058885,36.975752,20230601,0
2023-08-01-15:40:30,548,-0.55,1.22,10.76,-0.06,0.08,-0.02,95.7,1535.7,-0.01,84180,-1.1058885,36.975752,20230601,0
2023-08-01-15:40:30,549,-0.27,0.39,9.81,-0.01,-0.05,-0.02,95.41,1535.41,-0.01,84178,-1.105890667,36.97575483,12402600,0
2023-08-01-15:40:31,550,-0.99,1.36,11.86,-0.09,0.13,-0.02,94.25,1534.25,-0.03,84191,-1.105890667,36.97575483,20230601,0
2023-08-01-15:40:31,551,-0.66,1.17,10.3,-0.11,-0.12,-0.03,95.02,1535.02,0,84200,-1.105890667,36.97575483,20230601,0
2023-08-01-15:40:31,552,-0.78,1.39,10.37,-0.05,-0.1,-0.04,93.67,1533.67,0.26,84210,-1.105890667,36.97575483,20230601,0
2023-08-01-15:40:31,553,-1.36,0.97,11.15,0.07,0.26,0,94.25,1534.25,0,84207,-1.105890667,36.97575483,20230601,0
2023-08-01-15:40:31,554,-0.47,1.07,10.28,-0.09,0.1,-0.03,94.73,1534.73,0,84212,-1.105893167,36.975751,12402700,0
2023-08-01-15:40:32,555,-0.34,0.94,10.11,-0.18,0.06,-0.03,94.05,1534.05,0.27,84211,-1.105893167,36.975751,12402700,0
2023-08-01-15:40:32,556,-0.16,1.31,10.5,-0.03,-0.08,-0.04,91.73,1531.73,-0.01,84219,-1.105893167,36.975751,20230601,0
2023-08-01-15:40:32,557,-0.9,1.2,11.34,0.14,0.1,-0.01,93.18,1533.18,0.24,84208,-1.105893167,36.975751,20230601,0
2023-08-01-15:40:32,558,-0.58,1.22,10.91,-0.05,-0.05,-0.03,92.31,1532.31,0,84217,-1.105893167,36.975751,20230601,0
2023-08-01-15:40:32,559,-0.94,0.68,10.67,0.01,-0.07,-0.03,91.06,1531.06,-0.02,84225,-1.105893167,36.975751,20230601,0
2023-08-01-15:40:32,560,-1.02,0.93,10.56,0.01,-0.01,0.01,92.12,1532.12,0,84230,-1.105897667,36.975751,12402800,0
2023-08-01-15:40:33,561,-1.44,1.13,10.08,0.03,-0.2,-0.03,91.54,1531.54,-0.01,84235,-1.105897667,36.975751,12402800,0
2023-08-01-15:40:33,562,-0.77,0.83,9.68,-0.15,-0.28,-0.08,90.28,1530.28,-0.01,84237,-1.105897667,36.975751,20230601,0
2023-08-01-15:40:33,563,-2.94,0.82,21.2,-0.03,0.35,-0.01,92.8,1532.8,0.03,84244,-1.105897667,36.975751,20230601,0
2023-08-01-15:40:33,564,-0.83,1.17,9.72,-0.07,-0.39,-0.05,92.6,1532.6,0.03,84246,-1.105897667,36.975751,20230601,0
2023-08-01-15:40:33,565,-0.15,1.49,10.39,-0.06,0.3,0.01,90.77,1530.77,0.02,84246,-1.105897667,36.975751,20230601,0
2023-08-01-15:40:33,566,-0.04,0.91,10.07,0.19,-1.48,-0.09,90.09,1530.09,0.01,84259,-1.105895,36.97574883,12402900,0
2023-08-01-15:40:34,567,-1.31,0.82,10.15,-0.02,0.15,-0.02,92.22,1532.22,0,84236,-1.105895,36.97574883,20230601,0
2023-08-01-15:40:34,568,-1.31,0.95,10.29,-0.32,1.22,-0.11,90.38,1530.38,0,84247,-1.105895,36.97574883,20230601,0
2023-08-01-15:40:34,569,0.05,0.82,10.24,0.03,0,-0.04,90.19,1530.19,0,84246,-1.105895,36.97574883,20230601,0
2023-08-01-15:40:34,570,-0.7,1.13,10.95,-0.15,0.11,-0.04,88.83,1528.83,-0.04,84272,-1.105895,36.97574883,20230601,0
2023-08-01-15:40:34,571,-1.07,1.5,10.98,-0.14,-0.14,-0.05,87.58,1527.58,0,84274,-1.105902667,36.975747,12403000,0
2023-08-01-15:40:34,572,-0.62,0.91,10.61,-0.08,-0.04,-0.03,87.29,1527.29,0.01,84270,-1.105902667,36.975747,12403000,0
2023-08-01-15:40:35,573,-0.57,0.66,10.09,-0.06,-0.01,-0.03,86.03,1526.03,0.11,84299,-1.105902667,36.975747,20230601,0
2023-08-01-15:40:35,574,-1.36,1.25,9.92,-0.02,0,0.02,85.74,1525.74,0.01,84298,-1.105902667,36.975747,20230601,0
2023-08-01-15:40:35,575,-0.88,1.16,10.45,0.09,-0.07,0,85.26,1525.26,-0.01,84287,-1.105902667,36.975747,20230601,0
2023-08-01-15:40:35,576,-0.64,0.55,10.47,-0.01,0.4,0,84.1,1524.1,-0.02,84285,-1.1058375,36.97573433,12403100,0
2023-08-01-15:40:35,577,-0.31,0.12,9.89,-0.07,-0.32,0,87.29,1527.29,91.94,84288,-1.1058375,36.97573433,12403100,0
2023-08-01-15:40:35,578,-0.76,0.84,9.9,0,-0.13,-0.01,86.22,1526.22,0,84310,-1.1058375,36.97573433,20230601,0
2023-08-01-15:40:36,579,-1.11,0.88,10.14,0.12,-0.09,-0.01,85.26,1525.26,0,84300,-1.1058375,36.97573433,20230601,0
2023-08-01-15:40:36,580,-0.78,0.71,10.63,-0.14,0.04,-0.04,84.97,1524.97,0,84298,-1.1058375,36.97573433,20230601,0
2023-08-01-15:40:36,581,-0.97,0.74,10.38,-0.15,0.07,-0.05,85.35,1525.35,0.01,84301,-1.1058375,36.97573433,20230601,0
2023-08-01-15:40:36,582,-0.77,1.02,10.26,-0.02,-0.18,-0.06,84.29,1524.29,0,84322,-1.105845667,36.9757355,12403200,0
2023-08-01-15:40:36,583,-1.19,0.69,11,-0.11,0.06,-0.05,83.9,1523.9,0.01,84324,-1.105845667,36.9757355,12403200,0
2023-08-01-15:40:37,584,-0.31,0.97,9.99,-0.4,-0.39,-0.27,83.42,1523.42,0,84343,-1.105845667,36.9757355,20230601,0
2023-08-01-15:40:37,585,-0.87,0.83,10.69,-0.01,0.03,-0.05,81.58,1521.58,0.01,84337,-1.105845667,36.9757355,20230601,0
2023-08-01-15:40:37,586,-0.85,0.94,10.52,0.02,0.02,-0.01,79.75,1519.75,-0.02,84339,-1.105845667,36.9757355,20230601,0
2023-08-01-15:40:37,587,-0.17,0.42,10.03,0.12,0.39,0,81.87,1521.87,0,84330,-1.105845667,36.9757355,20230601,0
2023-08-01-15:40:37,588,-1.31,1.21,10.11,0.11,-0.16,-0.01,78.3,1518.3,1.08,84373,-1.105845833,36.97574067,12403300,0
2023-08-01-15:40:38,589,-0.24,1.39,10.53,-0.04,0.06,0.02,79.27,1519.27,0.01,84353,-1.105845833,36.97574067,20230601,0
2023-08-01-15:40:38,590,-1.12,0.59,9.91,-0.21,-0.2,-0.02,80.43,1520.43,-0.01,84343,-1.105845833,36.97574067,20230601,0
2023-08-01-15:40:38,591,-0.71,1.02,11.03,-0.09,0.11,0.01,82.26,1522.26,0.01,84315,-1.105845833,36.97574067,20230601,0
2023-08-01-15:40:38,592,-1.3,1.49,10.79,-0.06,-0.05,-0.03,75.6,1515.6,-0.07,84332,-1.105845833,36.97574067,20230601,0
2023-08-01-15:40:38,593,-0.31,1.2,10.84,-0.1,-0.12,-0.04,81.1,1521.1,0,84340,-1.105853667,36.97574333,12403400,0
2023-08-01-15:40:38,594,-0.57,1.25,10.2,-0.11,-0.16,-0.06,81.39,1521.39,0.01,84344,-1.105853667,36.97574333,12403400,0
2023-08-01-15:40:39,595,-0.91,1.21,10.89,-0.06,0.18,-0.02,81.29,1521.29,0.01,84342,-1.105853667,36.97574333,20230601,0
2023-08-01-15:40:39,596,0.02,0.97,9.9,-0.1,-0.31,-0.06,80.62,1520.62,-0.01,84344,-1.105853667,36.97574333,20230601,0
2023-08-01-15:40:39,597,-0.45,1.46,10.11,0.09,-0.23,-0.07,81,1521,0,84338,-1.105853667,36.97574333,20230601,0
2023-08-01-15:40:39,598,0.1,0.74,10.29,0,-0.02,-0.03,80.91,1520.91,0,84347,-1.105853667,36.97574333,20230601,0
2023-08-01-15:40:39,599,-1.92,1.13,14.16,0.21,0.1,0.06,80.14,1520.14,-0.02,84344,-1.105858333,36.975752,12403500,0
2023-08-01-15:40:40,600,1.68,0.67,13.89,-0.42,-0.34,-0.02,80.43,1520.43,-0.01,84346,-1.105858333,36.975752,12403500,0
2023-08-01-15:40:40,601,-3.33,2.05,14.75,-0.21,-0.66,-0.08,80.43,1520.43,91.83,84349,-1.105858333,36.975752,20230601,0
2023-08-01-15:40:40,602,-1.77,1.52,13.35,0.07,0.34,-0.1,79.36,1519.36,-0.01,84356,-1.105858333,36.975752,20230601,0
2023-08-01-15:40:40,603,-2.26,1.08,23.76,0.14,0.27,-0.06,78.59,1518.59,-0.01,84360,-1.105858333,36.975752,20230601,0
2023-08-01-15:40:40,604,-1.12,0.78,12.02,-0.05,0.01,-0.08,78.2,1518.2,-0.01,84358,-1.105858333,36.975752,20230601,0
2023-08-01-15:40:40,605,-0.37,0.74,10.36,-0.18,-0.05,-0.07,75.79,1515.79,0,84394,-1.105858833,36.97575717,12403600,0
2023-08-01-15:40:41,606,-1.19,0.95,9.73,-0.05,-0.12,-0.04,77.72,1517.72,0.04,84397,-1.105858833,36.97575717,20230601,0
2023-08-01-15:40:41,607,-0.98,0.88,9.89,-0.03,0.25,0,75.21,1515.21,0,84420,-1.105858833,36.97575717,20230601,0
2023-08-01-15:40:41,608,-0.57,0.77,9.5,-0.08,0.09,-0.03,75.6,1515.6,-0.03,84388,-1.105858833,36.97575717,20230601,0
2023-08-01-15:40:41,609,-0.81,0.7,9.72,0,-0.05,-0.01,76.85,1516.85,0,84397,-1.105858833,36.97575717,20230601,0
2023-08-01-15:40:41,610,-0.93,0.57,9.47,-0.03,-0.08,0,75.6,1515.6,-0.02,84391,-1.105863,36.97576017,12403700,0
2023-08-01-15:40:42,611,-0.74,0.73,9.25,-0.07,-0.02,0,74.92,1514.92,0.01,84402,-1.105863,36.97576017,12403700,0
2023-08-01-15:40:42,612,-0.73,0.97,9.53,-0.05,-0.11,0,75.4,1515.4,0.01,84423,-1.105863,36.97576017,20230601,0
2023-08-01-15:40:42,613,-0.9,0.87,9.56,-0.08,0.05,0,74.83,1514.83,-0.01,84409,-1.105863,36.97576017,20230601,0
2023-08-01-15:40:42,614,-0.85,0.71,9.37,-0.04,-0.03,0,72.99,1512.99,-0.02,84414,-1.105863,36.97576017,20230601,0
2023-08-01-15:40:42,615,-0.77,1.02,9.94,-0.01,0.1,0.02,74.63,1514.63,0.01,84404,-1.105863,36.97576017,20230601,0
2023-08-01-15:40:42,616,-1.36,0.9,9.65,-0.04,-0.11,0.02,73.57,1513.57,-0.01,84415,-1.105865667,36.97576333,12403800,0
2023-08-01-15:40:43,617,-1.42,0.97,10.5,-0.12,0.06,0.03,71.25,1511.25,-0.02,84429,-1.105865667,36.97576333,12403800,0
2023-08-01-15:40:43,618,-0.39,0.96,9.22,-0.11,-0.18,0.02,69.52,1509.52,-0.04,84460,-1.105865667,36.97576333,20230601,0
2023-08-01-15:40:43,619,-1.1,1.02,10.5,-0.07,-0.02,0.04,70.77,1510.77,0,84441,-1.105865667,36.97576333,20230601,0
2023-08-01-15:40:43,620,-0.67,0.77,10.12,0.07,-0.03,0.09,69.42,1509.42,-0.01,84457,-1.105865667,36.97576333,20230601,0
2023-08-01-15:40:43,621,-1.22,1.05,10.54,0.14,0.06,0.04,69.03,1509.03,-0.01,84463,-1.105863833,36.97576683,12403900,0
2023-08-01-15:40:44,622,-0.94,0.37,11.27,-0.31,-0.29,-0.08,69.32,1509.32,0,84462,-1.105863833,36.97576683,12403900,0
2023-08-01-15:40:44,623,-1.21,1.54,10.88,-0.36,-0.11,-0.12,68.07,1508.07,-0.01,84471,-1.105863833,36.97576683,20230601,0
2023-08-01-15:40:44,624,-1.14,1.13,11.04,-0.06,0.15,-0.09,67.39,1507.39,-0.01,84481,-1.105863833,36.97576683,20230601,0
2023-08-01-15:40:44,625,-0.98,0.88,10.65,0.16,0.25,-0.06,66.14,1506.14,0,84501,-1.105863833,36.97576683,20230601,0
2023-08-01-15:40:44,626,-1.55,1.09,11.64,-0.04,-0.22,-0.05,65.18,1505.18,0,84504,-1.105863833,36.97576683,20230601,0
2023-08-01-15:40:44,627,-0.67,1.39,10.85,0.04,0.14,-0.06,64.5,1504.5,-0.01,84514,-1.105862833,36.97577267,12404000,0
2023-08-01-15:40:45,628,-0.71,0.46,10.69,-0.02,-0.07,-0.04,63.15,1503.15,-0.01,84516,-1.105862833,36.97577267,12404000,0
2023-08-01-15:40:45,629,-1.07,1.25,10.38,-0.24,-0.14,-0.03,63.15,1503.15,0,84540,-1.105862833,36.97577267,20230601,0
2023-08-01-15:40:45,630,-1.44,1.28,10.65,-0.01,0.02,-0.01,61.32,1501.32,-0.03,84531,-1.105862833,36.97577267,20230601,0
2023-08-01-15:40:45,631,-1.11,1.13,10.89,0.3,0.05,0.01,61.42,1501.42,0.83,84529,-1.105862833,36.97577267,20230601,0
2023-08-01-15:40:45,632,-0.79,0.84,11.55,-0.03,0.06,-0.01,62.38,1502.38,0.01,84536,-1.105863333,36.97577517,12404100,0
2023-08-01-15:40:45,633,-1.05,1.05,11.43,-0.22,-0.21,0.02,60.55,1500.55,0,84550,-1.105863333,36.97577517,12404100,0
2023-08-01-15:40:46,634,-1.11,1.45,10.36,0.09,0.1,-0.07,59.49,1499.49,-0.01,84554,-1.105863333,36.97577517,20230601,0
2023-08-01-15:40:46,635,-0.35,0.86,10.18,0.08,0.14,-0.05,58.43,1498.43,-0.02,84571,-1.105863333,36.97577517,20230601,0
2023-08-01-15:40:46,636,-0.67,1.13,11.25,-0.05,-0.33,-0.05,58.81,1498.81,0,84578,-1.105863333,36.97577517,20230601,0
2023-08-01-15:40:46,637,-1.13,1.4,10.62,-0.11,-0.02,-0.07,58.14,1498.14,-0.01,84576,-1.105863333,36.97577517,20230601,0
2023-08-01-15:40:46,638,-1.22,1.36,10.83,-0.03,0.14,-0.05,57.27,1497.27,-0.01,84592,-1.1058655,36.97577667,12404200,0
2023-08-01-15:40:46,639,-0.55,1.02,10.7,-0.01,0.15,-0.05,56.98,1496.98,-0.02,84588,-1.1058655,36.97577667,12404200,0
2023-08-01-15:40:47,640,-1,0.98,10.54,-0.08,0.16,-0.01,57.56,1497.56,0.75,84585,-1.1058655,36.97577667,20230601,0
2023-08-01-15:40:47,641,-0.49,0.97,10.41,-0.02,0.08,0,56.79,1496.79,0,84593,-1.1058655,36.97577667,20230601,0
2023-08-01-15:40:47,642,-0.02,1.55,10.89,-0.02,-0.06,-0.02,57.46,1497.46,0.01,84593,-1.1058655,36.97577667,20230601,0
2023-08-01-15:40:47,643,-1.42,1.19,10.77,-0.05,0.08,-0.03,57.85,1497.85,0.01,84591,-1.1058655,36.97577667,20230601,0
2023-08-01-15:40:47,644,0.1,1.37,10.84,-0.25,0.22,-0.08,59.2,1499.2,0.78,84561,-1.1058645,36.975779,12404300,0
2023-08-01-15:40:47,645,-0.65,1.37,10.94,-0.02,-0.02,-0.02,56.98,1496.98,-0.01,84574,-1.1058645,36.975779,20230601,0
2023-08-01-15:40:48,646,-1,1.55,10.75,0,-0.06,-0.02,58.62,1498.62,0,84572,-1.1058645,36.975779,20230601,0
2023-08-01-15:40:48,647,-0.95,1.09,10.34,-0.12,-0.01,-0.04,-3314.83,-1874.83,-34.07,84570,-1.1058645,36.975779,20230601,0
2023-08-01-15:40:48,648,-0.92,1.7,10.72,-0.02,0.15,-0.01,58.14,1498.14,0.01,84580,-1.1058645,36.975779,20230601,0
2023-08-01-15:40:48,649,-0.1,1.03,10.82,-0.11,-0.02,-0.02,56.4,1496.4,0.7,84589,-1.105864167,36.97577533,12404400,0
2023-08-01-15:40:48,650,-0.78,1.08,10.72,-0.07,-0.03,-0.02,55.54,1495.54,-0.03,84601,-1.105864167,36.97577533,12404400,0
2023-08-01-15:40:49,651,-0.18,1.26,10.41,0.03,0.14,0,57.56,1497.56,0.02,84584,-1.105864167,36.97577533,20230601,0
2023-08-01-15:40:49,652,-1.3,1,10.22,0.01,-0.24,-0.02,56.79,1496.79,-0.02,84583,-1.105864167,36.97577533,20230601,0
2023-08-01-15:40:49,653,0.07,1.13,10.39,-0.1,-0.14,-0.03,56.89,1496.89,0.01,84601,-1.105864167,36.97577533,20230601,0
2023-08-01-15:40:49,654,-1.05,0.85,10.97,-0.11,0.34,0.03,55.63,1495.63,0.02,84588,-1.105864167,36.97577533,20230601,0
2023-08-01-15:40:49,655,-0.89,1.38,10.44,-0.11,-0.15,-0.03,56.21,1496.21,0.04,84594,-1.105863333,36.97577917,12404500,0
2023-08-01-15:40:49,656,-0.46,1.47,11.09,-0.01,0.2,0.03,56.21,1496.21,91.46,84593,-1.105863333,36.97577917,20230601,0
2023-08-01-15:40:50,657,-0.84,0.91,10.73,-0.09,-0.24,0.02,55.34,1495.34,0.01,84606,-1.105863333,36.97577917,20230601,0
2023-08-01-15:40:50,658,-1.55,0.65,10.78,-0.17,-0.01,-0.05,50.82,1490.82,-0.05,84628,-1.105863333,36.97577917,20230601,0
2023-08-01-15:40:50,659,-1.37,1.23,11.06,-0.11,0.04,-0.06,51.88,1491.88,-0.03,84628,-1.105863333,36.97577917,20230601,0
2023-08-01-15:40:50,660,-0.79,1.35,11.06,-0.15,-0.02,-0.07,51.01,1491.01,-0.01,84647,-1.105863333,36.97577917,20230601,0
2023-08-01-15:40:50,661,-0.69,0.76,10.25,0.03,0.1,-0.06,51.97,1491.97,-0.01,84652,-1.105869167,36.975774,12404600,0
2023-08-01-15:40:51,662,-1.38,1.04,10.51,0.03,0.26,-0.05,52.07,1492.07,-0.02,84653,-1.105869167,36.975774,20230601,0
2023-08-01-15:40:51,663,-0.32,0.94,10.14,0,0.05,-0.03,51.01,1491.01,-0.01,84638,-1.105869167,36.975774,20230601,0
2023-08-01-15:40:51,664,-1.83,0.97,10.84,-0.1,-0.03,-0.01,49.18,1489.18,-0.02,84670,-1.105869167,36.975774,20230601,0
2023-08-01-15:40:51,665,0,0,0,0,0,0,53.03,1493.03,0.04,84673,-1.105869167,36.975774,20230601,0
2023-08-01-15:40:51,666,-0.89,0.89,10.47,-0.1,0.03,-0.02,49.47,1489.47,0,84670,-1.105867,36.97578,12404700,0
2023-08-01-15:40:51,667,-0.97,0.74,10.43,-0.2,-0.27,0.01,47.26,1487.26,0.01,84658,-1.105867,36.97578,12404700,0
2023-08-01-15:40:52,668,-0.87,1.1,10.31,0.02,-0.06,-0.01,48.22,1488.22,-0.02,84697,-1.105867,36.97578,20230601,0
2023-08-01-15:40:52,669,-1.37,1.04,10.83,0.18,0.22,-0.06,45.14,1485.14,-0.04,84704,-1.105867,36.97578,20230601,0
2023-08-01-15:40:52,670,-0.9,0.37,10.96,0.02,0.41,-0.14,44.37,1484.37,-0.02,84720,-1.105867,36.97578,20230601,0
2023-08-01-15:40:52,671,-1.18,0.01,10.03,-0.26,-0.29,0,46.87,1486.87,0.03,84695,-1.105867,36.97578,20230601,0
2023-08-01-15:40:52,672,-1.46,1.21,10.65,-0.11,-0.15,0.02,46.77,1486.77,0.02,85100,-1.105872333,36.97577833,12404800,0
2023-08-01-15:40:53,673,-2.41,2.02,10.22,-0.15,-0.01,0.17,43.6,1483.6,0.54,84708,-1.105872333,36.97577833,12404800,0
2023-08-01-15:40:53,674,-1.9,1.75,11.5,0.18,0.5,0,38.11,1478.11,-0.09,84770,-1.105872333,36.97577833,20230601,0
2023-08-01-15:40:53,675,-0.72,0.33,11.16,-0.22,0.4,-0.09,38.79,1478.79,-0.01,84769,-1.105872333,36.97577833,20230601,0
2023-08-01-15:40:53,676,-0.04,-0.19,10.98,-0.17,-0.38,-0.05,38.69,1478.69,0.02,84782,-1.105872333,36.97577833,20230601,0
2023-08-01-15:40:53,677,-1.46,1.35,11.09,-0.34,-0.53,-0.03,40.61,1480.61,88.49,84753,-1.105872333,36.97577833,20230601,0
2023-08-01-15:40:53,678,-2.67,0.88,10.35,0,-0.03,0,41,1481,0,84760,-1.105880667,36.975782,12404900,0
2023-08-01-15:40:54,679,-1.76,1.37,11.11,0.18,0.61,-0.09,39.65,1479.65,0.01,84783,-1.105880667,36.975782,20230601,0
2023-08-01-15:40:54,680,0.02,0.73,10.66,0.27,0.36,-0.03,41,1481,0.03,84772,-1.105880667,36.975782,20230601,0
2023-08-01-15:40:54,681,-0.99,-0.24,12.2,-0.09,-0.57,0.01,40.13,1480.13,0.02,84771,-1.105880667,36.975782,20230601,0
2023-08-01-15:40:54,682,-3.09,0.62,9.88,-0.31,-0.36,0.07,42.15,1482.15,0,84759,-1.105880667,36.975782,20230601,0
2023-08-01-15:40:54,683,-0.73,1.48,10.5,-0.06,0.51,0.04,41.1,1481.1,-0.01,84745,-1.105882333,36.97579367,12405000,0
2023-08-01-15:40:54,684,-2.53,1.78,13.52,0.34,0.56,0.05,42.06,1482.06,0,84750,-1.105882333,36.97579367,12405000,0
2023-08-01-15:40:55,685,0.5,-0.05,14.41,0.11,0.22,-0.14,43.02,1483.02,0.01,84736,-1.105882333,36.97579367,20230601,0
2023-08-01-15:40:55,686,-0.64,0.65,14.55,-0.21,-0.49,-0.03,42.35,1482.35,-0.01,84739,-1.105882333,36.97579367,20230601,0
2023-08-01-15:40:55,687,-0.27,2.55,13.2,-0.53,-0.55,0.09,41.38,1481.38,0,84751,-1.105882333,36.97579367,20230601,0
2023-08-01-15:40:55,688,-3.3,1.93,12.72,0.03,-0.05,0.13,41.58,1481.58,0,84775,-1.105882333,36.97579367,20230601,0
2023-08-01-15:40:55,689,-0.04,0.28,10.71,0.14,0.68,-0.05,41,1481,0,84759,-1.1058865,36.97579633,12405100,0
2023-08-01-15:40:55,690,0.17,0.83,10.35,-0.01,0.4,-0.09,39.65,1479.65,-0.01,84761,-1.1058865,36.97579633,12405100,0
2023-08-01-15:40:56,691,-1.23,1.34,10.04,-0.31,-0.37,-0.14,39.08,1479.08,0,84777,-1.1058865,36.97579633,20230601,0
2023-08-01-15:40:56,692,-0.34,0.52,9.02,-0.1,0.14,-0.01,38.69,1478.69,-0.01,84782,-1.1058865,36.97579633,20230601,0
2023-08-01-15:40:56,693,-0.7,1.1,9.2,-0.02,-0.07,-0.02,38.31,1478.31,89.85,84783,-1.1058865,36.97579633,20230601,0
2023-08-01-15:40:56,694,-0.46,0.62,9.46,0.02,0.15,0,37.34,1477.34,88.5,84791,-1.105886667,36.97580133,12405200,0
2023-08-01-15:40:56,695,-0.98,1.14,9.12,-0.17,-0.2,-0.02,37.73,1477.73,0.01,84802,-1.105886667,36.97580133,12405200,0
2023-08-01-15:40:57,696,-1.23,0.61,9.55,-0.13,-0.13,-0.04,35.81,1475.81,-0.02,167544,-1.105886667,36.97580133,20230601,0
2023-08-01-15:40:57,697,-0.71,1.14,9.4,-0.08,0.08,-0.05,35.9,1475.9,0,84799,-1.105886667,36.97580133,20230601,0
2023-08-01-15:40:57,698,-1.12,0.68,10,-0.06,-0.03,-0.07,36.77,1476.77,0,84804,-1.105886667,36.97580133,20230601,0
2023-08-01-15:40:57,699,-0.81,0.6,9.65,-0.01,0.1,-0.06,35.61,1475.61,-0.01,84811,-1.105886667,36.97580133,20230601,0
2023-08-01-15:40:57,700,-0.68,0.69,9.63,0,0.08,-0.04,35.42,1475.42,0.51,84816,-1.105889333,36.97580333,12405300,0
2023-08-01-15:40:58,701,-0.67,0.39,9.82,-0.07,-0.04,-0.01,36.86,1476.86,0.03,84810,-1.105889333,36.97580333,12405300,0
2023-08-01-15:40:58,702,-1.16,0.34,10.26,-0.07,0,-0.03,33.98,1473.98,0,84822,-1.105889333,36.97580333,20230601,0
2023-08-01-15:40:58,703,-1.05,0.81,9.48,-0.12,0.09,-0.06,31.77,1471.77,-0.04,84828,-1.105889333,36.97580333,20230601,0
2023-08-01-15:40:58,704,-1.53,1.53,10.32,0.12,0.23,-0.04,31.38,1471.38,-0.01,84845,-1.105889333,36.97580333,20230601,0
2023-08-01-15:40:58,705,-0.64,0.78,10.35,0.17,0.13,-0.02,30.04,1470.04,-0.03,84853,-1.105889333,36.97580333,20230601,0
2023-08-01-15:40:58,706,-0.58,0.29,11.07,0.01,-0.14,-0.01,32.44,1472.44,0.01,84850,-1.105891167,36.975807,12405400,0
2023-08-01-15:40:59,707,-1.29,1.08,10.62,-0.33,-0.18,-0.02,30.42,1470.42,-0.02,84866,-1.105891167,36.975807,20230601,0
2023-08-01-15:40:59,708,-1.77,1.62,9.68,-0.14,0.14,-0.02,28.21,1468.21,-0.02,84875,-1.105891167,36.975807,20230601,0
2023-08-01-15:40:59,709,-0.88,0.71,11.13,0.28,0.18,-0.02,29.27,1469.27,0,84880,-1.105891167,36.975807,20230601,0
2023-08-01-15:40:59,710,-0.87,0.84,11.05,0.15,0.07,0,27.73,1467.73,0,84874,-1.105891167,36.975807,20230601,0
2023-08-01-15:40:59,711,-0.77,0.12,10.39,-0.1,-0.2,0,27.44,1467.44,-0.01,84905,-1.105892667,36.9758085,12405500,0
2023-08-01-15:40:59,712,-1.16,0.68,10.65,-0.37,-0.08,-0.06,27.25,1467.25,-0.01,84900,-1.105892667,36.9758085,12405500,0
2023-08-01-15:41:00,713,-0.37,1.46,10.87,0.29,0.26,0.01,28.12,1468.12,0.01,84895,-1.105892667,36.9758085,20230601,0
2023-08-01-15:41:00,714,0.17,0.21,11.19,0.31,0.23,0.05,26.1,1466.1,-0.01,84898,-1.105892667,36.9758085,20230601,0
2023-08-01-15:41:00,715,-0.52,0.58,11.13,-0.01,-0.19,0.03,27.73,1467.73,0.02,84888,-1.105892667,36.9758085,20230601,0
2023-08-01-15:41:00,716,-0.86,1.37,10.42,-0.28,-0.31,0,26.1,1466.1,-0.02,84913,-1.105892667,36.9758085,20230601,0
2023-08-01-15:41:00,717,-2.12,2.22,11.03,-0.19,0.1,-0.03,26.19,1466.19,-0.01,84904,-1.105895167,36.97581083,12405600,0
2023-08-01-15:41:00,718,-0.15,1.21,10.76,0.13,0.08,0.01,25.71,1465.71,-0.01,84920,-1.105895167,36.97581083,12405600,0
2023-08-01-15:41:01,719,-0.92,1.09,10.7,-0.02,-0.15,0.01,23.41,1463.41,-0.03,84919,-1.105895167,36.97581083,20230601,0
2023-08-01-15:41:01,720,-0.82,1.34,10.58,-0.09,-0.48,0.02,22.54,1462.54,-0.01,84925,-1.105895167,36.97581083,20230601,0
2023-08-01-15:41:01,721,-1.04,1.23,10.8,0.02,0.23,0.01,23.31,1463.31,0,84935,-1.105895167,36.97581083,20230601,0
2023-08-01-15:41:01,722,-0.74,0.41,10.86,-0.11,-0.08,-0.02,24.47,1464.47,0,84958,-1.105895167,36.97581083,20230601,0
2023-08-01-15:41:01,723,-1.21,0.8,10.94,-0.09,-0.09,0.01,23.6,1463.6,0,84925,-1.105899,36.97581317,12405700,0
2023-08-01-15:41:02,724,-0.59,1.1,10.98,-0.12,-0.24,-0.02,22.74,1462.74,0,84934,-1.105899,36.97581317,20230601,0
2023-08-01-15:41:02,725,-0.92,1.39,11.27,0.06,0.04,-0.06,21.49,1461.49,-0.02,84971,-1.105899,36.97581317,20230601,0
2023-08-01-15:41:02,726,-0.73,0.7,11.1,-0.01,0.15,-0.06,22.06,1462.06,0.01,84980,-1.105899,36.97581317,20230601,0
2023-08-01-15:41:02,727,-0.8,1.57,11,-0.11,0.05,-0.02,21.39,1461.39,0.3,84971,-1.105899,36.97581317,20230601,0
2023-08-01-15:41:02,728,-0.55,1.35,10.72,-0.11,0.09,-0.02,17.26,1457.26,-0.01,85002,-1.105902167,36.97581367,12405800,0
2023-08-01-15:41:02,729,-0.78,0.99,10.09,0.1,0.08,-0.01,18.22,1458.22,0.02,84970,-1.105902167,36.97581367,12405800,0
2023-08-01-15:41:03,730,-0.61,0.85,10.85,0.07,0.06,-0.03,15.06,1455.06,-0.03,84977,-1.105902167,36.97581367,20230601,0
2023-08-01-15:41:03,731,-1.11,1.11,10.91,-0.21,0,-0.06,16.21,1456.21,-0.02,84997,-1.105902167,36.97581367,20230601,0
2023-08-01-15:41:03,732,-1.32,1.73,10.88,-0.14,-0.08,0,19.18,1459.18,0.02,85000,-1.105902167,36.97581367,20230601,0
2023-08-01-15:41:03,733,-1.03,1.53,10.74,-0.04,0.08,0,18.99,1458.99,0.01,84997,-1.105902167,36.97581367,20230601,0
2023-08-01-15:41:03,734,-0.58,1.11,10.67,-0.02,0.09,0,17.65,1457.65,-0.01,84987,-1.105904833,36.97581433,12405900,0
2023-08-01-15:41:04,735,-0.47,0.96,10.47,-0.16,-0.2,-0.04,18.03,1458.03,88.26,84995,-1.105904833,36.97581433,12405900,0
2023-08-01-15:41:04,736,-1.66,0.94,11.85,-0.05,-0.1,0.01,18.8,1458.8,0.01,84979,-1.105904833,36.97581433,20230601,0
2023-08-01-15:41:04,737,-1.02,1.5,11.93,-0.19,0.11,-0.05,18.7,1458.7,0.01,84998,-1.105904833,36.97581433,20230601,0
2023-08-01-15:41:04,738,-0.67,0.84,11.25,0.05,-0.19,-0.03,17.07,1457.07,-0.01,85000,-1.105904833,36.97581433,20230601,0
2023-08-01-15:41:04,739,-1.07,1.1,13.63,0.05,0.15,0,17.94,1457.94,0,84990,-1.105904833,36.97581433,20230601,0
2023-08-01-15:41:04,740,-1.53,0.71,11.07,-0.03,-0.42,-0.07,18.03,1458.03,-0.01,85002,-1.105906833,36.9758205,12410000,0
2023-08-01-15:41:05,741,-0.29,1.05,12,-0.02,0.34,-0.06,17.07,1457.07,-0.02,84998,-1.105906833,36.9758205,20230601,0
2023-08-01-15:41:05,742,-1.03,1.21,10.7,-0.03,-0.35,-0.1,16.88,1456.88,-0.01,85008,-1.105906833,36.9758205,20230601,0
2023-08-01-15:41:05,743,-1.27,1.25,10.55,0.1,-0.21,-0.04,17.07,1457.07,0,84997,-1.105906833,36.9758205,20230601,0
2023-08-01-15:41:05,744,-2.05,1.34,12.65,0.03,-0.09,-0.05,17.94,1457.94,0,85011,-1.105906833,36.9758205,20230601,0
2023-08-01-15:41:05,745,-1.06,0.79,11.67,-0.09,0.32,0,18.03,1458.03,0.03,85003,-1.105911167,36.975828,12410100,0
2023-08-01-15:41:05,746,-0.44,0.84,10.91,-0.02,-0.37,-0.03,16.59,1456.59,-0.02,85006,-1.105911167,36.975828,12410100,0
2023-08-01-15:41:06,747,-1.63,1.01,11.91,-0.07,0.1,-0.03,17.55,1457.55,-0.01,85001,-1.105911167,36.975828,20230601,0
2023-08-01-15:41:06,748,-0.38,0.68,11.34,-0.02,-0.01,-0.03,16.5,1456.5,-0.01,85002,-1.105911167,36.975828,20230601,0
2023-08-01-15:41:06,749,-0.76,0.83,10.74,-0.11,-0.09,-0.04,17.26,1457.26,0.01,85012,-1.105911167,36.975828,20230601,0
2023-08-01-15:41:06,750,-0.68,0.99,10.68,-0.02,-0.06,-0.02,18.32,1458.32,0.01,85003,-1.105911167,36.975828,20230601,0
2023-08-01-15:41:06,751,-1.07,0.38,10.55,-0.11,0.02,-0.01,18.7,1458.7,0.01,85006,-1.105912167,36.97583083,12410200,0
2023-08-01-15:41:07,752,-0.79,0.89,10.33,-0.09,-0.01,-0.01,16.3,1456.3,-0.02,85004,-1.105912167,36.97583083,20230601,0
2023-08-01-15:41:07,753,-0.98,1.01,11.18,0.05,0.12,0,17.55,1457.55,0.01,85011,-1.105912167,36.97583083,20230601,0
2023-08-01-15:41:07,754,-0.58,0.82,10.7,-0.06,-0.15,-0.02,16.4,1456.4,-0.01,85018,-1.105912167,36.97583083,20230601,0
2023-08-01-15:41:07,755,-1.13,0.69,10.64,-0.09,-0.02,-0.01,17.17,1457.17,0,85010,-1.105912167,36.97583083,20230601,0
2023-08-01-15:41:07,756,-1.13,0.65,10.94,-0.02,0.04,0.01,17.84,1457.84,0,85010,-1.105914333,36.9758355,12410300,0
2023-08-01-15:41:07,757,-0.78,0.87,12.79,-0.09,0.1,0.01,16.3,1456.3,-0.01,85021,-1.105914333,36.9758355,12410300,0
2023-08-01-15:41:08,758,-0.36,0.93,11.74,0.05,-0.12,0,13.23,1453.23,-0.04,85029,-1.105914333,36.9758355,20230601,0
2023-08-01-15:41:08,759,-1.18,0.47,11.7,0.02,0.02,-0.02,15.44,1455.44,0.02,85021,-1.105914333,36.9758355,20230601,0
2023-08-01-15:41:08,760,-0.81,1.12,11.78,-0.05,-0.07,-0.06,16.11,1456.11,0.01,84996,-1.105914333,36.9758355,20230601,0
2023-08-01-15:41:08,761,-0.69,0.8,10.82,-0.01,-0.03,-0.03,15.25,1455.25,0,85021,-1.105914333,36.9758355,20230601,0
2023-08-01-15:41:08,762,-0.39,0.83,10.91,-0.04,0.05,-0.03,14.77,1454.77,-0.02,85016,-1.105915167,36.97584267,12410400,0
2023-08-01-15:41:09,763,-0.98,0.83,10.21,-0.13,-0.1,-0.05,15.06,1455.06,0,85031,-1.105915167,36.97584267,12410400,0
2023-08-01-15:41:09,764,-0.77,0.54,10.16,-0.04,0.14,-0.04,14,1454,0,85021,-1.105915167,36.97584267,20230601,0
2023-08-01-15:41:09,765,-0.69,0.81,9.69,-0.05,-0.04,-0.03,14,1454,0.28,85038,-1.105915167,36.97584267,20230601,0
2023-08-01-15:41:09,766,-0.43,0.75,8.76,-0.03,0,-0.01,17.17,1457.17,0.01,85008,-1.105915167,36.97584267,20230601,0
2023-08-01-15:41:09,767,-0.71,0.61,9.2,0,0.01,0.01,16.3,1456.3,-0.02,85006,-1.105915167,36.97584267,20230601,0
2023-08-01-15:41:09,768,-0.17,0.49,9.77,-0.08,0.13,0.02,17.36,1457.36,0.01,85019,-1.105917833,36.97584367,12410500,0
2023-08-01-15:41:10,769,-0.36,0.57,9.91,-0.16,-0.15,-0.02,15.73,1455.73,0.01,85027,-1.105917833,36.97584367,20230601,0
2023-08-01-15:41:10,770,-1.47,0.68,10.83,-0.12,0.02,-0.01,14.87,1454.87,-0.04,85028,-1.105917833,36.97584367,20230601,0
2023-08-01-15:41:10,771,-1.96,3.1,21.78,-0.13,-0.26,-0.04,13.04,1453.04,-0.07,85015,-1.105917833,36.97584367,20230601,0
2023-08-01-15:41:10,772,-1.38,0.59,11.25,0,0.15,-0.01,13.71,1453.71,-0.02,85023,-1.105917833,36.97584367,20230601,0
2023-08-01-15:41:10,773,-0.6,0.98,10.34,-0.08,-0.41,-0.06,15.44,1455.44,0.02,85034,-1.10592,36.97584983,12410600,0
2023-08-01-15:41:11,774,-2.32,0.71,12.62,-0.1,0.09,-0.01,12.66,1452.66,0.01,85054,-1.10592,36.97584983,12410600,0
2023-08-01-15:41:11,775,-1.2,0.32,12.42,-0.04,0.08,-0.03,11.79,1451.79,-0.03,85047,-1.10592,36.97584983,20230601,0
2023-08-01-15:41:11,776,-0.41,1.47,12.14,-0.03,0.08,0.02,10.64,1450.64,-0.03,85051,-1.10592,36.97584983,20230601,0
2023-08-01-15:41:11,777,-1.14,0.9,12.2,-0.09,-0.31,-0.03,12.47,1452.47,0,85045,-1.10592,36.97584983,20230601,0
2023-08-01-15:41:11,778,-0.73,0.73,10.73,-0.15,-0.09,-0.04,12.75,1452.75,0.02,85047,-1.10592,36.97584983,20230601,0
2023-08-01-15:41:11,779,-0.86,0.53,10.2,-0.06,-0.02,-0.05,13.62,1453.62,0.02,85044,-1.1059215,36.975854,12410700,0
2023-08-01-15:41:12,780,-0.48,0.77,9.76,-0.09,0.07,-0.05,13.43,1453.43,-0.01,85030,-1.1059215,36.975854,12410700,0
2023-08-01-15:41:12,781,-0.54,0.61,9.46,-0.1,-0.03,-0.05,14,1454,0,85026,-1.1059215,36.975854,20230601,0
2023-08-01-15:41:12,782,-0.62,1.02,10,-0.08,0.01,-0.03,13.81,1453.81,-0.01,85042,-1.1059215,36.975854,20230601,0
2023-08-01-15:41:12,783,-0.9,1.07,10.09,-0.08,0.02,-0.03,13.43,1453.43,-0.02,85038,-1.1059215,36.975854,20230601,0
2023-08-01-15:41:12,784,-0.36,0.38,9.08,0.03,-0.09,-0.01,13.14,1453.14,-0.02,85046,-1.105922667,36.97585583,12410800,0
2023-08-01-15:41:12,785,-0.84,0.44,9.52,0.02,0.07,-0.01,13.71,1453.71,0.02,85046,-1.105922667,36.97585583,12410800,0
2023-08-01-15:41:13,786,-1.32,0.73,10.94,0.09,0.35,0.05,14.1,1454.1,0,85031,-1.105922667,36.97585583,20230601,0
2023-08-01-15:41:13,787,-1.35,0.7,10.98,0.14,0.53,0.07,15.34,1455.34,0.01,85030,-1.105922667,36.97585583,20230601,0
2023-08-01-15:41:13,788,0.36,1.59,12.71,-0.2,-0.08,0,12.85,1452.85,0,85047,-1.105922667,36.97585583,20230601,0
2023-08-01-15:41:13,789,-1.17,-0.01,13.23,-0.15,-0.14,-0.02,11.31,1451.31,-0.03,85053,-1.105922667,36.97585583,20230601,0
2023-08-01-15:41:13,790,-0.74,1.01,11.76,0.02,-0.31,-0.01,12.18,1452.18,0.01,85051,-1.105923,36.97586017,12410900,0
2023-08-01-15:41:13,791,-2.11,1.05,12.19,-0.08,-0.08,-0.04,13.33,1453.33,-0.01,85049,-1.105923,36.97586017,20230601,0
2023-08-01-15:41:14,792,-1.08,1.02,11.3,0.12,0.14,-0.02,10.74,1450.74,-0.04,85049,-1.105923,36.97586017,20230601,0
2023-08-01-15:41:14,793,-1.09,1.22,11.45,-0.07,0.09,-0.03,12.85,1452.85,0,85039,-1.105923,36.97586017,20230601,0
2023-08-01-15:41:14,794,-1.09,0.44,10.53,0.05,0.09,-0.02,14.48,1454.48,0.01,85032,-1.105923,36.97586017,20230601,0
2023-08-01-15:41:14,795,-0.21,0.49,10.28,-0.08,0.06,-0.05,13.71,1453.71,0,85031,-1.105923,36.97586017,20230601,0
2023-08-01-15:41:14,796,-0.87,0.71,10.22,-0.13,0.01,-0.05,11.51,1451.51,-0.01,85046,-1.105924833,36.97586033,12411000,0
2023-08-01-15:41:14,797,-0.47,0.34,8.54,-0.04,-0.1,-0.05,12.18,1452.18,0.01,85046,-1.105924833,36.97586033,20230601,0
2023-08-01-15:41:15,798,-0.63,0.76,10.24,0.02,0.15,-0.01,12.95,1452.95,0,85064,-1.105924833,36.97586033,20230601,0
2023-08-01-15:41:15,799,-0.16,0.42,9.27,-0.14,0.18,-0.01,11.99,1451.99,0,85060,-1.105924833,36.97586033,20230601,0
2023-08-01-15:41:15,800,-1.33,0.31,9.29,0.05,-0.27,-0.02,10.26,1450.26,0.01,85048,-1.105924833,36.97586033,20230601,0
2023-08-01-15:41:15,801,-1.16,1.03,12.22,-0.09,0.29,0.01,11.22,1451.22,0.03,85066,-1.105921167,36.9758575,12411100,0
2023-08-01-15:41:15,802,-0.63,1.24,12.86,-0.02,-0.09,0,11.7,1451.7,0,85084,-1.105921167,36.9758575,12411100,0
2023-08-01-15:41:16,803,-0.73,0.53,11.17,-0.07,-0.15,0,9.97,1449.97,-0.02,85069,-1.105921167,36.9758575,20230601,0
2023-08-01-15:41:16,804,-1.03,1.06,11.26,-0.11,-0.01,-0.04,7.57,1447.57,0.01,85082,-1.105921167,36.9758575,20230601,0
2023-08-01-15:41:16,805,-0.83,0.92,10.64,-0.05,-0.02,-0.07,-15.99,1424.01,-0.22,85095,-1.105921167,36.9758575,20230601,0
2023-08-01-15:41:16,806,-0.98,1.18,10.83,0.01,0.04,-0.05,8.92,1448.92,-0.04,85084,-1.105921167,36.9758575,20230601,0
2023-08-01-15:41:16,807,-0.84,1.03,10.34,-0.05,0.12,-0.03,9.68,1449.68,0.27,85067,-1.105923,36.97585817,12411200,0
2023-08-01-15:41:16,808,-0.73,0.47,9.86,-0.12,0.07,-0.05,10.26,1450.26,0.01,85090,-1.105923,36.97585817,12411200,0
2023-08-01-15:41:17,809,-0.81,0.56,9.52,-0.1,0.01,-0.03,11.03,1451.03,0.01,85076,-1.105923,36.97585817,20230601,0
2023-08-01-15:41:17,810,-0.17,1.21,9.74,-0.06,0.02,-0.02,9.97,1449.97,-0.01,85064,-1.105923,36.97585817,20230601,0
2023-08-01-15:41:17,811,-0.23,0.97,9.84,-0.02,0.26,0,10.64,1450.64,0,85068,-1.105923,36.97585817,20230601,0
2023-08-01-15:41:17,812,-1.17,0.27,9.27,0.09,-0.11,0,9.59,1449.59,0.3,85082,-1.105923,36.97585817,20230601,0
2023-08-01-15:41:17,813,-0.03,1.29,9.73,-0.12,0.01,-0.02,8.15,1448.15,-0.02,85092,-1.105921,36.97586133,12411300,0
2023-08-01-15:41:18,814,-1.63,1.22,10.29,-0.07,0.13,0.01,7.48,1447.48,-0.01,85104,-1.105921,36.97586133,12411300,0
2023-08-01-15:41:18,815,-0.42,1.17,12.77,-0.02,0.28,0.08,6.04,1446.04,-0.02,85119,-1.105921,36.97586133,20230601,0
2023-08-01-15:41:18,816,-1.39,0.67,12.62,-0.12,-0.24,0.02,5.85,1445.85,0,85131,-1.105921,36.97586133,20230601,0
2023-08-01-15:41:18,817,-2.01,1.25,13.17,-0.09,-0.14,-0.04,4.7,1444.7,-0.01,85106,-1.105921,36.97586133,20230601,0
2023-08-01-15:41:18,818,-1.18,0.44,11.66,0.08,0.02,-0.1,6.62,1446.62,0.02,85116,-1.105921,36.97586133,20230601,0
2023-08-01-15:41:19,819,-1.06,0.89,11.74,-0.02,0.28,-0.1,7,1447,0,85110,-1.105915333,36.97585867,12411400,0
2023-08-01-15:41:19,820,-0.49,1.11,10.48,-0.07,-0.06,-0.09,7.96,1447.96,0.01,85117,-1.105915333,36.97585867,20230601,0
2023-08-01-15:41:19,821,-0.91,0.47,9.93,-0.07,0.02,-0.06,7.57,1447.57,-0.01,85098,-1.105915333,36.97585867,20230601,0
2023-08-01-15:41:19,822,-0.49,0.65,9.27,0.03,0.15,-0.02,5.18,1445.18,-0.02,85103,-1.105915333,36.97585867,20230601,0
2023-08-01-15:41:19,823,-0.33,0.67,9.16,-0.06,0.2,-0.05,5.66,1445.66,-0.01,85130,-1.105915333,36.97585867,20230601,0
2023-08-01-15:41:19,824,-1.06,0.44,9.54,-0.04,0.14,-0.02,6.04,1446.04,0,85125,-1.105917167,36.97586,12411500,0
2023-08-01-15:41:20,825,-0.69,0.78,9.1,0,-0.14,-0.02,6.81,1446.81,0.01,85104,-1.105917167,36.97586,12411500,0
2023-08-01-15:41:20,826,-1.51,0.32,9.87,0.03,-0.07,0.01,7.1,1447.1,0,85101,-1.105917167,36.97586,20230601,0
2023-08-01-15:41:20,827,-0.05,0.63,8.85,-0.12,0.13,0.02,6.14,1446.14,-0.02,85112,-1.105917167,36.97586,20230601,0
2023-08-01-15:41:20,828,-0.05,0.43,9.22,-0.03,-0.02,0.01,5.94,1445.94,-0.02,85119,-1.105917167,36.97586,20230601,0
2023-08-01-15:41:20,829,-1.93,1.05,10.4,0.25,0.15,0.03,7.1,1447.1,0.02,85124,-1.105917167,36.97586,20230601,0
2023-08-01-15:41:20,830,-0.29,0.5,9.88,-0.11,0.36,0.06,7.77,1447.77,0,85116,-1.105919667,36.9758615,12411600,0
2023-08-01-15:41:21,831,-0.23,1.05,11.26,-0.33,-0.35,0.07,6.33,1446.33,-0.03,85103,-1.105919667,36.9758615,20230601,0
2023-08-01-15:41:21,832,-1.04,1.42,11.94,-0.07,-0.36,0.09,7.57,1447.57,0.01,85128,-1.105919667,36.9758615,20230601,0
2023-08-01-15:41:21,833,-1.18,0.06,14.59,-0.06,-0.2,-0.09,7.57,1447.57,0.01,85108,-1.105919667,36.9758615,20230601,0
2023-08-01-15:41:21,834,-2.7,2.2,15.16,-0.28,0.38,-0.11,7.77,1447.77,0.01,85107,-1.105919667,36.9758615,20230601,0
2023-08-01-15:41:21,835,-0.29,1.13,12.88,0.07,-0.34,-0.12,7.57,1447.57,0.01,85107,-1.105921333,36.97586283,12411700,0
2023-08-01-15:41:21,836,-1.78,-0.29,12.24,-0.14,-0.19,-0.09,6.9,1446.9,0.01,85117,-1.105921333,36.97586283,12411700,0
2023-08-01-15:41:22,837,-0.55,0.8,11.32,-0.29,0,-0.1,5.47,1445.47,-0.03,85115,-1.105921333,36.97586283,20230601,0
2023-08-01-15:41:22,838,-1.01,0.7,10.79,-0.11,0.19,-0.08,6.33,1446.33,0,85121,-1.105921333,36.97586283,20230601,0
2023-08-01-15:41:22,839,-0.77,1.17,10.67,0.03,-0.02,-0.03,6.52,1446.52,-0.02,85113,-1.105921333,36.97586283,20230601,0
2023-08-01-15:41:22,840,-0.84,0.59,10.12,0.04,-0.01,-0.01,6.14,1446.14,0,85120,-1.105921333,36.97586283,20230601,0
2023-08-01-15:41:22,841,-0.51,0.85,10.28,-0.07,-0.08,-0.03,7.57,1447.57,0.02,85121,-1.105926333,36.97586217,12411800,0
2023-08-01-15:41:23,842,-1.31,0.78,10.59,-0.05,-0.03,-0.03,6.04,1446.04,0,85120,-1.105926333,36.97586217,20230601,0
2023-08-01-15:41:23,843,-0.85,1.08,10.22,0.02,-0.03,0.01,6.42,1446.42,0.01,85108,-1.105926333,36.97586217,20230601,0
2023-08-01-15:41:23,844,-0.97,0.59,10.78,-0.06,0.09,0.01,5.85,1445.85,-0.03,85116,-1.105926333,36.97586217,20230601,0
2023-08-01-15:41:23,845,-0.53,0.53,10.07,-0.08,0.07,-0.03,6.81,1446.81,0.01,85115,-1.105926333,36.97586217,20230601,0
2023-08-01-15:41:23,846,-0.77,0.72,10.81,-0.18,0.03,-0.02,7,1447,0.02,85109,-1.105933333,36.97586517,12411900,0
2023-08-01-15:41:24,847,-0.96,0.81,11.19,-0.11,-0.06,-0.04,6.81,1446.81,-0.01,85114,-1.105933333,36.97586517,12411900,0
2023-08-01-15:41:24,848,-0.4,0.71,10.25,0.04,-0.12,0.01,7.19,1447.19,0.01,85114,-1.105933333,36.97586517,20230601,0
2023-08-01-15:41:24,849,-1.56,0.63,11.18,0.01,0.03,0,7.96,1447.96,0.02,85111,-1.105933333,36.97586517,20230601,0
2023-08-01-15:41:24,850,-0.9,0.67,10.69,-0.19,-0.06,-0.04,7.86,1447.86,0.02,85115,-1.105933333,36.97586517,20230601,0
2023-08-01-15:41:24,851,-1.03,1.34,10.9,-0.02,-0.12,-0.03,7.1,1447.1,-0.01,85115,-1.105933333,36.97586517,20230601,0
2023-08-01-15:41:25,852,-0.84,0.88,10.64,-0.02,0.01,-0.01,7.19,1447.19,-0.01,85101,-1.1059355,36.97586517,12412000,0
2023-08-01-15:41:25,853,-0.24,0.14,10.51,-0.08,0.11,-0.02,6.62,1446.62,-0.01,85113,-1.1059355,36.97586517,20230601,0
2023-08-01-15:41:25,854,-0.57,0.5,9.74,-0.12,-0.19,-0.04,7.38,1447.38,0,85117,-1.1059355,36.97586517,20230601,0
2023-08-01-15:41:25,855,-0.4,0.73,10.23,-0.04,-0.19,-0.03,7.19,1447.19,0,85110,-1.1059355,36.97586517,20230601,0
2023-08-01-15:41:25,856,-1.23,1.08,11.58,-0.02,0.23,0,6.33,1446.33,-0.01,85114,-1.1059355,36.97586517,20230601,0
2023-08-01-15:41:25,857,-0.68,0.6,10.31,0.01,-0.25,-0.04,5.27,1445.27,-0.01,85105,-1.1059355,36.97586517,20230601,0
2023-08-01-15:41:26,858,-0.84,0.75,11.48,-0.07,0.23,-0.01,5.94,1445.94,0.02,85114,-1.105934167,36.9758675,12412100,0
2023-08-01-15:41:26,859,-0.28,0.8,10.62,-0.06,0.09,-0.03,6.33,1446.33,49.96,85110,-1.105934167,36.9758675,20230601,0
2023-08-01-15:41:26,860,-0.7,1.02,10.84,-0.06,0.08,-0.03,5.75,1445.75,0,85124,-1.105934167,36.9758675,20230601,0
2023-08-01-15:41:26,861,-0.5,0.18,10.16,-0.08,-0.02,-0.03,6.52,1446.52,0.01,85132,-1.105934167,36.9758675,20230601,0
2023-08-01-15:41:26,862,-0.85,0.87,10.8,-0.1,0.02,-0.03,4.79,1444.79,-0.01,85125,-1.105934167,36.9758675,20230601,0
2023-08-01-15:41:26,863,-0.8,0.75,10.65,-0.06,0,-0.02,5.94,1445.94,0.01,85125,-1.105933,36.9758675,12412200,0
2023-08-01-15:41:27,864,-1.1,1.01,10.7,-0.01,-0.07,-0.02,5.85,1445.85,0,85109,-1.105933,36.9758675,12412200,0
2023-08-01-15:41:27,865,-0.76,0.81,10.98,0.04,-0.01,-0.01,4.7,1444.7,-0.03,85127,-1.105933,36.9758675,20230601,0
2023-08-01-15:41:27,866,-0.73,1.01,11.09,-0.09,0.09,-0.01,4.99,1444.99,-0.01,85139,-1.105933,36.9758675,20230601,0
2023-08-01-15:41:27,867,-0.58,0.9,10.75,-0.14,-0.01,-0.04,5.08,1445.08,0.02,85125,-1.105933,36.9758675,20230601,0
2023-08-01-15:41:27,868,-0.72,0.66,10.31,-0.13,-0.03,-0.04,4.7,1444.7,-0.01,85124,-1.105934167,36.97586783,12412300,0
2023-08-01-15:41:28,869,-0.54,0.63,10.2,-0.03,0.02,-0.05,5.56,1445.56,0.34,85136,-1.105934167,36.97586783,12412300,0
2023-08-01-15:41:28,870,-1,0.76,10.77,-0.02,0.05,-0.03,5.18,1445.18,0,85124,-1.105934167,36.97586783,20230601,0
2023-08-01-15:41:28,871,-0.55,1.09,11,0.04,0.09,-0.02,4.79,1444.79,-0.01,85120,-1.105934167,36.97586783,20230601,0
2023-08-01-15:41:28,872,-0.83,1.09,11.38,-0.09,0.02,-0.04,6.71,1446.71,0.02,85123,-1.105934167,36.97586783,20230601,0
2023-08-01-15:41:28,873,-1.21,0.88,10.78,0.01,-0.09,0.01,6.23,1446.23,0.01,85125,-1.105934167,36.97586783,20230601,0
2023-08-01-15:41:29,874,-1.23,0.65,11.26,0.06,-0.04,0.02,6.42,1446.42,0.01,85120,-1.1059355,36.97586883,12412400,0
2023-08-01-15:41:29,875,-1.18,0.56,10.63,-0.17,0.27,-0.01,6.42,1446.42,0,85111,-1.1059355,36.97586883,20230601,0
2023-08-01-15:41:29,876,-0.89,0.51,10.28,-0.06,-0.2,-0.03,5.66,1445.66,-0.01,85115,-1.1059355,36.97586883,20230601,0
2023-08-01-15:41:29,877,-1.03,1.36,11.58,0.05,0.28,0.01,6.04,1446.04,0,85110,-1.1059355,36.97586883,20230601,0
2023-08-01-15:41:29,878,-0.6,0.6,10.45,-0.11,0.14,-0.03,6.81,1446.81,0.36,85112,-1.1059355,36.97586883,20230601,0
2023-08-01-15:41:29,879,-0.64,0.58,10.11,0,0.14,-0.04,6.33,1446.33,0.01,85109,-1.105937667,36.97586983,12412500,0
2023-08-01-15:41:30,880,-1.09,1.2,11.45,-0.05,-0.04,-0.03,6.33,1446.33,-0.01,85119,-1.105937667,36.97586983,12412500,0
2023-08-01-15:41:30,881,-0.58,0.86,10.66,-0.04,0.07,-0.02,7.86,1447.86,0.01,85109,-1.105937667,36.97586983,20230601,0
2023-08-01-15:41:30,882,-1.14,0.86,10.9,0.02,0.12,-0.02,6.71,1446.71,-0.01,85109,-1.105937667,36.97586983,20230601,0
2023-08-01-15:41:30,883,-0.64,0.98,11.3,-0.03,0.15,-0.04,6.52,1446.52,0,85119,-1.105937667,36.97586983,20230601,0
2023-08-01-15:41:30,884,-0.32,0.45,10.54,-0.12,-0.09,-0.04,6.52,1446.52,0,85117,-1.105937667,36.97586983,20230601,0
2023-08-01-15:41:30,885,-0.39,0.93,10.62,-0.17,0.01,-0.04,9.01,1449.01,0.02,85127,-1.105939167,36.9758705,12412600,0
2023-08-01-15:41:31,886,-0.78,0.09,10.35,0.05,0.07,-0.01,6.42,1446.42,-0.01,85106,-1.105939167,36.9758705,12412600,0
2023-08-01-15:41:31,887,-1.5,0.97,11.4,-0.04,0.07,-0.01,7.29,1447.29,91.1,85125,-1.105939167,36.9758705,20230601,0
2023-08-01-15:41:31,888,-0.6,0.24,9.73,-0.09,-0.07,-0.02,4.99,1444.99,-0.01,85126,-1.105939167,36.9758705,20230601,0
2023-08-01-15:41:31,889,-0.98,1.03,10.89,-0.14,-0.03,-0.03,6.14,1446.14,0,85128,-1.105939167,36.9758705,20230601,0
2023-08-01-15:41:31,890,-0.63,0.46,10.41,0.09,0.02,0.01,6.14,1446.14,0,85118,-1.1059395,36.9758715,12412700,0
2023-08-01-15:41:32,891,-0.44,1.3,11.18,0.01,0.2,-0.03,6.52,1446.52,0,85096,-1.1059395,36.9758715,12412700,0
2023-08-01-15:41:32,892,-1.09,0.49,10.97,0.04,0.1,-0.01,6.14,1446.14,-0.01,85106,-1.1059395,36.9758715,20230601,0
2023-08-01-15:41:32,893,-1.05,0.77,10.78,-0.04,-0.11,-0.01,6.52,1446.52,-0.02,85112,-1.1059395,36.9758715,20230601,0
2023-08-01-15:41:32,894,-1.16,0.77,11.01,-0.08,0.06,-0.02,7.19,1447.19,0.01,85106,-1.1059395,36.9758715,20230601,0
2023-08-01-15:41:32,895,-0.31,0.7,9.93,0.01,-0.11,-0.02,6.81,1446.81,0.01,85114,-1.1059395,36.9758715,20230601,0
2023-08-01-15:41:32,896,-0.86,0.77,10.74,-0.04,-0.1,-0.03,5.56,1445.56,-0.01,85113,-1.105939333,36.97587167,12412800,0
2023-08-01-15:41:33,897,-1.03,0.47,10.97,-0.14,-0.1,-0.06,6.33,1446.33,-0.02,85113,-1.105939333,36.97587167,20230601,0
2023-08-01-15:41:33,898,-0.44,0.77,10.2,-0.19,0.02,-0.07,-3335.27,-1895.27,-35.95,85107,-1.105939333,36.97587167,20230601,0
2023-08-01-15:41:33,899,-1.07,0.76,11.02,-0.02,0.04,-0.04,5.94,1445.94,-0.02,85123,-1.105939333,36.97587167,20230601,0
2023-08-01-15:41:33,900,-0.85,0.84,10.76,0.06,0.06,-0.01,5.18,1445.18,-0.01,85125,-1.105939333,36.97587167,20230601,0
2023-08-01-15:41:33,901,-0.42,0.7,10.58,0.03,0.05,0,5.75,1445.75,0.01,85133,-1.105940667,36.97587367,12412900,0
2023-08-01-15:41:34,902,-0.28,0.98,10.61,-0.12,-0.13,-0.04,5.66,1445.66,0.41,85121,-1.105940667,36.97587367,12412900,0
2023-08-01-15:41:34,903,-0.87,0.89,10.42,-0.06,-0.03,-0.02,5.37,1445.37,0,85129,-1.105940667,36.97587367,20230601,0
2023-08-01-15:41:34,904,-1.19,0.98,11.13,-0.02,0.08,-0.03,5.27,1445.27,0,85126,-1.105940667,36.97587367,20230601,0
2023-08-01-15:41:34,905,-0.92,1.01,11.04,-0.01,0.1,0,4.51,1444.51,-0.01,85124,-1.105940667,36.97587367,20230601,0
2023-08-01-15:41:34,906,-0.94,0.56,10.9,-0.05,0.05,-0.02,5.75,1445.75,0.02,85130,-1.105940667,36.97587367,20230601,0
2023-08-01-15:41:35,907,-0.91,0.78,10.68,-0.09,-0.03,-0.04,5.08,1445.08,0,85133,-1.105941667,36.97587367,12413000,0
2023-08-01-15:41:35,908,-1.05,0.91,10.91,-0.06,0.1,-0.03,4.7,1444.7,0,85126,-1.105941667,36.97587367,20230601,0
2023-08-01-15:41:35,909,-0.53,1,10.42,0.01,0,-0.01,6.81,1446.81,0,85126,-1.105941667,36.97587367,20230601,0
2023-08-01-15:41:35,910,-1.02,0.71,10.78,0.03,0.17,0,7.67,1447.67,0.01,85126,-1.105941667,36.97587367,20230601,0
2023-08-01-15:41:35,911,-0.58,0.61,10.65,-0.09,-0.15,-0.04,5.08,1445.08,91.09,85120,-1.105941667,36.97587367,20230601,0
2023-08-01-15:41:35,912,-1.49,0.78,11.04,-0.05,0.09,-0.02,7.48,1447.48,0.02,85127,-1.105942667,36.97587533,12413100,0
2023-08-01-15:41:36,913,-2.15,1.27,21.23,-0.03,0.16,-0.01,4.99,1444.99,-0.01,85109,-1.105942667,36.97587533,12413100,0
2023-08-01-15:41:36,914,-0.58,0.85,11.45,0.01,0.14,-0.01,5.18,1445.18,0.01,85143,-1.105942667,36.97587533,20230601,0
2023-08-01-15:41:36,915,-0.73,0.59,11.48,-0.05,0.08,0.01,4.22,1444.22,-0.01,85127,-1.105942667,36.97587533,20230601,0
2023-08-01-15:41:36,916,-0.74,0.63,9.73,0,-0.19,0,5.47,1445.47,0.02,85132,-1.105942667,36.97587533,20230601,0
2023-08-01-15:41:36,917,-0.91,0.72,11.47,-0.1,0.29,-0.03,5.27,1445.27,0.01,85140,-1.105943833,36.97587683,12413200,0
2023-08-01-15:41:37,918,-0.29,0.83,10.39,-0.03,0.02,-0.03,5.85,1445.85,0,85112,-1.105943833,36.97587683,12413200,0
2023-08-01-15:41:37,919,-0.99,0.9,10.58,-0.04,-0.23,-0.01,5.08,1445.08,-0.01,85123,-1.105943833,36.97587683,20230601,0
2023-08-01-15:41:37,920,-0.83,0.49,10.24,-0.04,-0.07,0,6.14,1446.14,0.01,85123,-1.105943833,36.97587683,20230601,0
2023-08-01-15:41:37,921,-0.25,0.4,10.48,-0.11,-0.04,-0.04,-3342.09,-1902.09,-33.15,85109,-1.105943833,36.97587683,20230601,0
2023-08-01-15:41:37,922,-0.66,0.39,10.54,-0.06,-0.02,-0.05,6.81,1446.81,-0.01,85111,-1.105943833,36.97587683,20230601,0
2023-08-01-15:41:37,923,-1.08,0.96,10.41,0.07,0.04,-0.04,7.1,1447.1,0.01,85127,-1.105945,36.97587683,12413300,0
2023-08-01-15:41:38,924,-0.92,0.64,10.66,-0.01,0.04,-0.03,6.81,1446.81,0,85116,-1.105945,36.97587683,20230601,0
2023-08-01-15:41:38,925,-0.6,0.98,10.61,-0.09,-0.05,-0.03,6.62,1446.62,0,85111,-1.105945,36.97587683,20230601,0
2023-08-01-15:41:38,926,-0.98,0.63,10.58,-0.01,0.01,-0.03,5.85,1445.85,-0.01,85131,-1.105945,36.97587683,20230601,0
2023-08-01-15:41:38,927,-0.41,0.68,11.05,-0.02,0.17,0.01,6.33,1446.33,0,85121,-1.105945,36.97587683,20230601,0
2023-08-01-15:41:38,928,-0.36,0.72,10.96,-0.08,0.09,-0.03,7.77,1447.77,0.03,85123,-1.105945833,36.97587783,12413400,0
2023-08-01-15:41:38,929,-0.28,0.66,10.14,-0.09,-0.05,-0.03,5.47,1445.47,-0.03,85117,-1.105945833,36.97587783,12413400,0
2023-08-01-15:41:39,930,-0.91,1.02,11.31,-0.05,0.04,-0.02,6.81,1446.81,0,85116,-1.105945833,36.97587783,20230601,0
2023-08-01-15:41:39,931,-0.44,0.9,10.36,-0.01,0,-0.03,5.66,1445.66,0,85105,-1.105945833,36.97587783,20230601,0
2023-08-01-15:41:39,932,-0.75,0.99,10.75,-0.04,0,-0.03,5.85,1445.85,0.01,85121,-1.105945833,36.97587783,20230601,0
2023-08-01-15:41:39,933,-0.5,0.54,10.58,-0.05,0.12,-0.01,5.18,1445.18,-0.01,85129,-1.105945833,36.97587783,20230601,0
2023-08-01-15:41:39,934,-0.74,0.87,10.61,0.04,0,-0.02,6.9,1446.9,0.01,85127,-1.105947333,36.97588,12413500,0
2023-08-01-15:41:40,935,-0.95,0.87,10.7,-0.02,0.15,0,5.08,1445.08,-0.01,85117,-1.105947333,36.97588,20230601,0
2023-08-01-15:41:40,936,-0.56,0.61,10.65,-0.07,-0.04,-0.03,4.99,1444.99,0,85126,-1.105947333,36.97588,20230601,0
2023-08-01-15:41:40,937,-0.85,0.77,10.92,-0.19,0,-0.04,6.81,1446.81,91.01,85110,-1.105947333,36.97588,20230601,0
2023-08-01-15:41:40,938,-0.8,0.43,10.41,-0.03,0.15,-0.04,6.52,1446.52,0,85110,-1.105947333,36.97588,20230601,0
2023-08-01-15:41:40,939,-0.61,1.33,10.79,0.01,-0.07,-0.03,8.05,1448.05,49.29,85096,-1.105947833,36.9758785,12413600,0
2023-08-01-15:41:41,940,-1.04,0.99,11.25,-0.16,0.02,-0.02,6.81,1446.81,-0.01,85104,-1.105947833,36.9758785,12413600,0
2023-08-01-15:41:41,941,-0.59,0.31,10.32,0.05,0.12,-0.01,6.62,1446.62,-0.02,85114,-1.105947833,36.9758785,20230601,0
2023-08-01-15:41:41,942,-0.66,0.91,10.65,-0.07,0.07,-0.02,7,1447,0.01,85099,-1.105947833,36.9758785,20230601,0
2023-08-01-15:41:41,943,-0.49,1.11,10.78,-0.04,0.01,-0.02,6.14,1446.14,-0.02,85109,-1.105947833,36.9758785,20230601,0
2023-08-01-15:41:41,944,-0.9,0.88,10.91,-0.02,0.07,-0.02,6.62,1446.62,0,85109,-1.105947833,36.9758785,20230601,0
2023-08-01-15:41:41,945,-0.83,0.94,10.62,0.01,-0.05,-0.01,6.62,1446.62,-0.03,85116,-1.105948667,36.97587983,12413700,0
2023-08-01-15:41:42,946,-0.62,0.79,10.56,-0.08,0.04,-0.03,5.47,1445.47,-0.01,85111,-1.105948667,36.97587983,12413700,0
2023-08-01-15:41:42,947,-0.86,0.76,11.12,-0.02,0.04,-0.03,7.38,1447.38,0.02,85114,-1.105948667,36.97587983,20230601,0
2023-08-01-15:41:42,948,-0.85,0.95,10.14,0.08,-0.03,-0.01,6.04,1446.04,-0.03,85104,-1.105948667,36.97587983,20230601,0
2023-08-01-15:41:42,949,-0.54,1.08,11.63,0.01,0.21,-0.01,5.56,1445.56,-0.01,85125,-1.105948667,36.97587983,20230601,0
2023-08-01-15:41:42,950,-0.77,1.1,10.16,-0.12,-0.29,-0.03,5.75,1445.75,-0.03,85117,-1.105948667,36.97587983,20230601,0
2023-08-01-15:41:43,951,-0.86,0.32,10.54,-0.05,-0.15,-0.04,7,1447,0.01,85112,-1.105949667,36.97587983,12413800,0
2023-08-01-15:41:43,952,-0.88,1.02,10.87,-0.07,-0.13,-0.03,7.96,1447.96,50.02,85119,-1.105949667,36.97587983,20230601,0
2023-08-01-15:41:43,953,-0.92,0.72,10.7,-0.09,0.17,-0.02,5.94,1445.94,0.01,85129,-1.105949667,36.97587983,20230601,0
2023-08-01-15:41:43,954,-0.88,0.6,10.33,0.02,-0.13,-0.04,-3342.3,-1902.3,-36.8,85118,-1.105949667,36.97587983,20230601,0
2023-08-01-15:41:43,955,-1.06,0.91,10.74,0.04,-0.08,-0.01,7.57,1447.57,0,85118,-1.105949667,36.97587983,20230601,0
2023-08-01-15:41:44,956,-1.15,0.75,10.86,0.06,-0.11,0,6.04,1446.04,0.32,85109,-1.105949833,36.97587933,12413900,0
2023-08-01-15:41:44,957,-0.71,0.11,10.31,-0.1,0.1,-0.01,4.89,1444.89,-0.01,85122,-1.105949833,36.97587933,20230601,0
2023-08-01-15:41:44,958,-0.39,0.76,10.5,-0.13,-0.06,-0.06,7.38,1447.38,0.03,85123,-1.105949833,36.97587933,20230601,0
2023-08-01-15:41:44,959,-1.25,1.26,11.01,-0.01,0.01,-0.02,7.48,1447.48,0.01,85107,-1.105949833,36.97587933,20230601,0
2023-08-01-15:41:44,960,-0.3,0.62,10.73,-0.07,0.08,-0.03,6.62,1446.62,50,85106,-1.105949833,36.97587933,20230601,0
2023-08-01-15:41:45,961,-0.32,1.08,11.34,-0.01,0.01,-0.02,6.33,1446.33,0,85112,-1.105949833,36.97588,12414000,0
2023-08-01-15:41:45,962,-0.87,0.89,10.57,-0.05,-0.12,-0.03,7.57,1447.57,0,85105,-1.105949833,36.97588,12414000,0
2023-08-01-15:41:45,963,-0.52,0.78,10.44,-0.1,-0.05,-0.04,8.05,1448.05,0,85115,-1.105949833,36.97588,20230601,0
2023-08-01-15:41:45,964,-0.5,1.17,11.12,0.02,-0.1,-0.01,5.85,1445.85,-0.03,85110,-1.105949833,36.97588,20230601,0
2023-08-01-15:41:45,965,-0.73,0.93,10.89,-0.08,-0.06,-0.02,7,1447,-0.01,85097,-1.105949833,36.97588,20230601,0
2023-08-01-15:41:45,966,-0.65,0.84,10.89,-0.1,-0.04,-0.04,7.1,1447.1,-0.01,85115,-1.105949833,36.97588,20230601,0
2023-08-01-15:41:46,967,-0.4,0.77,10.39,-0.21,0.07,-0.17,6.81,1446.81,-0.02,85106,-1.1059495,36.975881,12414100,0
2023-08-01-15:41:46,968,-0.84,0.61,11.24,-0.03,0.15,0,6.62,1446.62,-0.01,85095,-1.1059495,36.975881,12414100,0
2023-08-01-15:41:46,969,-0.63,0.75,11.26,-0.06,0.1,-0.04,5.94,1445.94,0.31,85099,-1.1059495,36.975881,20230601,0
2023-08-01-15:41:46,970,-0.52,0.57,9.81,-0.14,-0.13,-0.06,5.66,1445.66,-0.01,85089,-1.1059495,36.975881,20230601,0
2023-08-01-15:41:46,971,-1,0.58,11.29,-0.03,0.13,-0.02,7.38,1447.38,0.02,85120,-1.1059495,36.975881,20230601,0
2023-08-01-15:41:46,972,-0.25,0.94,10.19,-0.12,-0.04,-0.04,5.75,1445.75,-0.02,85128,-1.105950333,36.975882,12414200,0
2023-08-01-15:41:47,973,-1.14,0.72,11.14,0.03,-0.18,-0.02,6.62,1446.62,0,85126,-1.105950333,36.975882,12414200,0
2023-08-01-15:41:47,974,-1.31,0.83,10.95,-0.06,-0.15,-0.03,8.05,1448.05,0.02,85108,-1.105950333,36.975882,20230601,0
2023-08-01-15:41:47,975,-0.16,0.53,10.35,-0.12,0.1,-0.01,6.71,1446.71,0,85124,-1.105950333,36.975882,20230601,0
2023-08-01-15:41:47,976,-0.99,0.44,10.19,-0.07,-0.09,-0.03,7.29,1447.29,0,85108,-1.105950333,36.975882,20230601,0
2023-08-01-15:41:47,977,-0.33,0.33,10.71,0.06,0.19,-0.01,5.75,1445.75,-0.01,85124,-1.105950333,36.975882,20230601,0
2023-08-01-15:41:48,978,-0.83,0.91,11.16,0.05,0.11,0,6.42,1446.42,0.01,85112,-1.105951333,36.9758825,12414300,0
2023-08-01-15:41:48,979,-0.9,0.52,10.28,0.09,-0.19,-0.01,6.04,1446.04,-0.01,85120,-1.105951333,36.9758825,20230601,0
2023-08-01-15:41:48,980,-1.47,1.03,11.84,-0.1,0.17,-0.02,6.52,1446.52,-0.01,85105,-1.105951333,36.9758825,20230601,0
2023-08-01-15:41:48,981,-1.13,0.8,10.68,-0.2,-0.03,-0.03,6.14,1446.14,-0.02,85124,-1.105951333,36.9758825,20230601,0
2023-08-01-15:41:48,982,-0.49,0.84,11.23,-0.07,0.06,-0.01,6.71,1446.71,0,85104,-1.105951333,36.9758825,20230601,0
2023-08-01-15:41:49,983,-0.3,0.68,10.72,-0.09,0.14,-0.03,6.52,1446.52,0,85109,-1.1059515,36.975882,12414400,0
2023-08-01-15:41:49,984,-0.87,0.76,10.65,0.05,-0.03,-0.02,6.04,1446.04,-0.01,85118,-1.1059515,36.975882,20230601,0
2023-08-01-15:41:49,985,-1.03,0.76,11.3,0.01,0.21,0.01,5.37,1445.37,-0.03,85108,-1.1059515,36.975882,20230601,0
2023-08-01-15:41:49,986,-0.62,0.76,10.4,-0.17,-0.28,-0.05,6.81,1446.81,0.36,85107,-1.1059515,36.975882,20230601,0
2023-08-01-15:41:49,987,0,0.81,10.11,0.01,-0.1,-0.03,5.85,1445.85,49.94,85119,-1.1059515,36.975882,20230601,0
2023-08-01-15:41:50,988,0.25,0.62,10.04,0,0.05,-0.01,6.23,1446.23,0,85114,-1.105952333,36.97588267,12414500,0
2023-08-01-15:41:50,989,-1.72,0.62,11.32,0.04,0.05,0.01,6.23,1446.23,0,85107,-1.105952333,36.97588267,12414500,0
2023-08-01-15:41:50,990,-0.37,0.69,10.33,-0.11,-0.06,-0.05,7,1447,0.02,85114,-1.105952333,36.97588267,20230601,0
2023-08-01-15:41:50,991,-0.99,0.43,10.37,0.01,-0.14,-0.05,6.33,1446.33,-0.01,85120,-1.105952333,36.97588267,20230601,0
2023-08-01-15:41:50,992,-0.95,0.58,10.89,-0.03,0.19,-0.02,5.94,1445.94,0,85105,-1.105952333,36.97588267,20230601,0
2023-08-01-15:41:50,993,0.03,0.72,10.03,-0.12,-0.08,-0.05,5.08,1445.08,-0.01,85126,-1.105952333,36.97588267,20230601,0
2023-08-01-15:41:51,994,-0.26,1.05,11,-0.06,-0.11,-0.03,6.71,1446.71,0.01,85120,-1.105953167,36.97588333,12414600,0
2023-08-01-15:41:51,995,-0.9,0.88,10.48,-0.1,-0.18,-0.02,6.52,1446.52,0.01,85114,-1.105953167,36.97588333,12414600,0
2023-08-01-15:41:51,996,-0.68,0.76,10.26,0,-0.22,-0.04,6.71,1446.71,0.01,85122,-1.105953167,36.97588333,20230601,0
2023-08-01-15:41:51,997,-0.52,0.73,11.3,0.01,0.25,-0.02,4.99,1444.99,-0.01,85123,-1.105953167,36.97588333,20230601,0
2023-08-01-15:41:51,998,-0.78,0.92,10.75,-0.1,-0.03,-0.05,6.14,1446.14,0.01,85117,-1.105953167,36.97588333,20230601,0
2023-08-01-15:41:52,999,-1.18,0.99,11.9,0.1,0.22,0,4.22,1444.22,0,85120,-1.105953167,36.97588333,20230601,0
2023-08-01-15:41:52,1000,-0.97,0.61,9.92,-0.07,-0.21,-0.05,5.66,1445.66,0,85127,-1.105954333,36.9758845,12414700,0
2023-08-01-15:41:52,1001,-1.28,1.11,11.7,-0.1,0,-0.03,5.18,1445.18,0,85124,-1.105954333,36.9758845,20230601,0
2023-08-01-15:41:52,1002,-0.39,1.07,9.76,-0.07,-0.05,-0.04,6.33,1446.33,0.01,85138,-1.105954333,36.9758845,20230601,0
2023-08-01-15:41:52,1003,-0.66,0.33,11.09,-0.09,0.16,-0.03,6.81,1446.81,0.36,85110,-1.105954333,36.9758845,20230601,0
2023-08-01-15:41:52,1004,-0.66,0.96,9.57,-0.02,-0.28,-0.03,6.52,1446.52,0.01,85112,-1.105955167,36.9758855,12414800,0
2023-08-01-15:41:53,1005,-1.44,1.14,10.66,-0.03,-0.21,-0.02,5.85,1445.85,0,85118,-1.105955167,36.9758855,12414800,0
2023-08-01-15:41:53,1006,-0.55,1.16,10.63,-0.03,0.01,-0.03,6.33,1446.33,-0.01,85109,-1.105955167,36.9758855,20230601,0
2023-08-01-15:41:53,1007,-0.84,0.33,11.2,0,0.05,0.01,6.81,1446.81,0,85111,-1.105955167,36.9758855,20230601,0
2023-08-01-15:41:53,1008,-0.7,0.67,10.54,-0.03,-0.06,-0.03,6.33,1446.33,0.02,85122,-1.105955167,36.9758855,20230601,0
2023-08-01-15:41:53,1009,-0.66,0.6,10.26,-0.1,-0.09,-0.02,5.66,1445.66,-0.01,85118,-1.105956333,36.975886,12414900,0
2023-08-01-15:41:54,1010,-0.68,0.51,11.08,-0.04,0.13,-0.02,6.62,1446.62,0.37,85109,-1.105956333,36.975886,12414900,0
2023-08-01-15:41:54,1011,-1.13,1.23,12,-0.01,0.02,-0.01,6.04,1446.04,0,85113,-1.105956333,36.975886,20230601,0
2023-08-01-15:41:54,1012,-1.01,1.18,11.94,-0.02,0.14,0.02,6.04,1446.04,-0.01,85115,-1.105956333,36.975886,20230601,0
2023-08-01-15:41:54,1013,-0.91,0.87,11.57,0.01,-0.22,-0.05,4.7,1444.7,-0.02,85120,-1.105956333,36.975886,20230601,0
2023-08-01-15:41:54,1014,-1.02,0.51,11.21,-0.15,-0.19,-0.08,6.9,1446.9,0.01,85111,-1.105956333,36.975886,20230601,0
2023-08-01-15:41:55,1015,-1.24,0.8,10.99,-0.16,0.2,-0.05,6.04,1446.04,0,85119,-1.105956667,36.97588667,12415000,0
2023-08-01-15:41:55,1016,-0.66,1.19,10.39,-0.05,0.14,-0.01,4.79,1444.79,-0.01,85126,-1.105956667,36.97588667,20230601,0
2023-08-01-15:41:55,1017,-0.34,0.66,9.67,0.07,0.08,-0.02,5.47,1445.47,-0.01,85115,-1.105956667,36.97588667,20230601,0
2023-08-01-15:41:55,1018,-0.57,0.77,9.64,-0.08,0.02,-0.03,6.62,1446.62,0.01,85115,-1.105956667,36.97588667,20230601,0
2023-08-01-15:41:55,1019,-0.6,0.91,9.69,-0.43,-0.22,-0.12,6.42,1446.42,0,85119,-1.105956667,36.97588667,20230601,0
2023-08-01-15:41:55,1020,-0.57,0.81,10.5,-0.04,0.26,0,5.94,1445.94,0,85121,-1.105956333,36.975887,12415100,0
2023-08-01-15:41:56,1021,-0.98,1.84,20.57,0.05,-0.07,0.01,5.47,1445.47,-0.02,85121,-1.105956333,36.975887,12415100,0
2023-08-01-15:41:56,1022,-0.78,2.6,20.96,-0.13,-0.06,-0.03,6.14,1446.14,0.01,85123,-1.105956333,36.975887,20230601,0
2023-08-01-15:41:56,1023,-0.4,0.97,10.41,-0.03,-0.08,-0.03,5.66,1445.66,-0.01,85117,-1.105956333,36.975887,20230601,0
2023-08-01-15:41:56,1024,-0.66,0.94,10.74,-0.01,-0.04,-0.03,5.37,1445.37,0,85113,-1.105956333,36.975887,20230601,0
2023-08-01-15:41:56,1025,-0.91,1.23,10.99,0,0.02,0.01,6.62,1446.62,0.01,167910,-1.105956333,36.975887,20230601,0
2023-08-01-15:41:57,1026,-0.65,0.87,10.9,-0.05,0.05,-0.03,6.9,1446.9,0.01,85112,-1.105956167,36.97588683,12415200,0
2023-08-01-15:41:57,1027,-0.74,1.01,10.93,-0.09,-0.01,-0.05,5.47,1445.47,-0.01,85105,-1.105956167,36.97588683,12415200,0
2023-08-01-15:41:57,1028,-0.82,1.22,10.78,-0.01,-0.03,-0.04,4.99,1444.99,-0.01,85125,-1.105956167,36.97588683,20230601,0
2023-08-01-15:41:57,1029,-0.97,0.58,10.88,0.05,0.12,0.02,6.81,1446.81,0.01,85119,-1.105956167,36.97588683,20230601,0
2023-08-01-15:41:57,1030,-0.73,0.95,10.29,-0.07,-0.08,-0.03,6.14,1446.14,-0.01,85136,-1.105956167,36.97588683,20230601,0
2023-08-01-15:41:58,1031,-0.78,0.8,11.08,-0.18,0.03,-0.03,6.71,1446.71,0.02,85124,-1.105956167,36.97588683,20230601,0
2023-08-01-15:41:58,1032,-2.01,1.54,21.06,0.02,0.02,-0.01,6.9,1446.9,0,85113,-1.105956833,36.9758875,12415300,0
2023-08-01-15:41:58,1033,-0.39,0.69,10.47,-0.08,-0.08,-0.03,7.57,1447.57,0.01,85109,-1.105956833,36.9758875,20230601,0
2023-08-01-15:41:58,1034,-0.89,0.67,10.86,0.02,0.1,-0.03,7,1447,0,85111,-1.105956833,36.9758875,20230601,0
2023-08-01-15:41:58,1035,-0.1,1.26,10.98,-0.1,0.14,-0.02,6.81,1446.81,-0.02,85111,-1.105956833,36.9758875,20230601,0
2023-08-01-15:41:58,1036,-0.08,0.54,10.03,-0.03,0.07,-0.01,5.85,1445.85,-0.01,85120,-1.105956833,36.9758875,20230601,0
2023-08-01-15:41:59,1037,-1.07,0.78,10.82,-0.09,0.2,-0.02,5.18,1445.18,-0.03,85117,-1.105956833,36.97588833,12415400,0
2023-08-01-15:41:59,1038,0.15,1.09,11.15,-0.08,0.07,-0.03,5.94,1445.94,0,85125,-1.105956833,36.97588833,20230601,0
2023-08-01-15:41:59,1039,-0.44,1.15,10.51,-0.12,-0.09,-0.03,5.27,1445.27,0,85125,-1.105956833,36.97588833,20230601,0
2023-08-01-15:41:59,1040,-0.8,0.74,10.62,-0.05,0.1,-0.01,5.85,1445.85,0,85122,-1.105956833,36.97588833,20230601,0
2023-08-01-15:41:59,1041,-0.75,0.65,10.94,-0.07,0.2,-0.03,6.14,1446.14,0.01,85121,-1.105956833,36.97588833,20230601,0
2023-08-01-15:42:00,1042,-1.51,0.58,11.2,-0.11,0.19,-0.03,6.23,1446.23,-0.01,85111,-1.105958,36.9758895,12415500,0
2023-08-01-15:42:00,1043,-0.13,1.03,10.56,-0.01,0.21,-0.03,6.14,1446.14,0,85112,-1.105958,36.9758895,12415500,0
2023-08-01-15:42:00,1044,-1.16,0.45,10.93,0.01,-0.16,-0.04,5.37,1445.37,-0.01,85119,-1.105958,36.9758895,20230601,0
2023-08-01-15:42:00,1045,-0.54,0.61,11.06,-0.08,-0.13,-0.04,6.42,1446.42,0,85114,-1.105958,36.9758895,20230601,0
2023-08-01-15:42:00,1046,-0.57,1.23,11.6,0.03,-0.06,-0.01,6.52,1446.52,0,85112,-1.105958,36.9758895,20230601,0
2023-08-01-15:42:01,1047,-0.94,0.8,10.82,-0.05,-0.04,-0.03,5.66,1445.66,-0.01,85121,-1.105957333,36.975889,12415600,0
2023-08-01-15:42:01,1048,-0.98,1.13,10.9,-0.03,0.05,-0.03,6.42,1446.42,0.01,85117,-1.105957333,36.975889,12415600,0
2023-08-01-15:42:01,1049,-0.16,0.76,10.75,-0.06,0.16,-0.02,6.42,1446.42,0.01,85121,-1.105957333,36.975889,20230601,0
2023-08-01-15:42:01,1050,-0.55,0.77,10.07,-0.09,-0.18,-0.02,6.62,1446.62,0.01,85118,-1.105957333,36.975889,20230601,0
2023-08-01-15:42:01,1051,-0.35,1.2,10.9,-0.06,-0.01,-0.02,6.04,1446.04,-0.01,85113,-1.105957333,36.975889,20230601,0
2023-08-01-15:42:01,1052,-0.95,1.02,11.61,-0.06,0.01,-0.03,6.9,1446.9,0,85116,-1.105957333,36.975889,20230601,0
2023-08-01-15:42:02,1053,-0.79,0.97,11.12,-0.08,-0.07,-0.03,6.81,1446.81,-0.02,85113,-1.105959,36.97589133,12415700,0
2023-08-01-15:42:02,1054,-0.93,0.41,9.59,0.08,0.03,-0.01,6.42,1446.42,-0.01,85118,-1.105959,36.97589133,20230601,0
2023-08-01-15:42:02,1055,-0.89,0.84,10.21,0,0.07,-0.04,7.1,1447.1,0,85116,-1.105959,36.97589133,20230601,0
2023-08-01-15:42:02,1056,-0.27,1.1,9.67,-0.03,0.02,-0.03,7,1447,0,126332,-1.105959,36.97589133,20230601,0
2023-08-01-15:42:02,1057,-0.71,0.67,10.16,-0.05,-0.03,-0.02,5.47,1445.47,-0.01,85118,-1.105959,36.97589133,20230601,0
2023-08-01-15:42:02,1058,-0.5,0.94,10.68,-0.11,0.07,-0.03,6.23,1446.23,0.02,85118,-1.1059585,36.97589317,12415800,0
2023-08-01-15:42:03,1059,-0.21,0.97,10.48,-0.09,0.03,-0.04,7.19,1447.19,-0.01,85105,-1.1059585,36.97589317,20230601,0
2023-08-01-15:42:03,1060,-0.57,1.11,10.62,-0.09,0.14,-0.02,7.96,1447.96,0.02,85111,-1.1059585,36.97589317,20230601,0
2023-08-01-15:42:03,1061,-0.8,0.83,10.58,0.05,-0.09,0.01,7.38,1447.38,0,85109,-1.1059585,36.97589317,20230601,0
2023-08-01-15:42:03,1062,-0.22,0.91,10.85,-0.07,0.12,-0.02,6.52,1446.52,-0.01,85110,-1.1059585,36.97589317,20230601,0
2023-08-01-15:42:03,1063,-0.62,1.09,10.7,-0.05,0.08,0,6.23,1446.23,-0.01,85122,-1.105957833,36.97589367,12415900,0
2023-08-01-15:42:04,1064,-1.09,0.71,10.44,0.02,0.17,0,6.42,1446.42,0,85118,-1.105957833,36.97589367,12415900,0
2023-08-01-15:42:04,1065,-0.71,0.8,10.22,0.05,-0.1,-0.01,6.23,1446.23,-0.01,85115,-1.105957833,36.97589367,20230601,0
2023-08-01-15:42:04,1066,-1.13,0.68,11.03,-0.03,0.12,-0.02,6.52,1446.52,0,85111,-1.105957833,36.97589367,20230601,0
2023-08-01-15:42:04,1067,-0.42,0.92,10.63,-0.15,0.06,-0.04,7,1447,0.35,85106,-1.105957833,36.97589367,20230601,0
2023-08-01-15:42:04,1068,-0.21,1.11,10.54,-0.03,0.01,-0.04,7.57,1447.57,0.36,85097,-1.105957833,36.97589367,20230601,0
2023-08-01-15:42:05,1069,-0.54,1.21,10.24,-0.01,-0.22,-0.05,7.96,1447.96,0.01,85093,-1.105958167,36.9758925,12420000,0
2023-08-01-15:42:05,1070,-0.79,1.08,11.18,0.02,0.14,0.01,7,1447,0,167908,-1.105958167,36.9758925,20230601,0
2023-08-01-15:42:05,1071,-0.45,1.02,9.96,-0.12,-0.1,-0.05,8.05,1448.05,0.02,85101,-1.105958167,36.9758925,20230601,0
2023-08-01-15:42:05,1072,-0.64,1.16,10.87,0.03,-0.03,-0.01,6.9,1446.9,0,85108,-1.105958167,36.9758925,20230601,0
2023-08-01-15:42:05,1073,-1.02,1.16,10.28,0.04,-0.01,0,6.81,1446.81,0.01,85119,-1.105958167,36.9758925,20230601,0
2023-08-01-15:42:05,1074,-0.66,0.89,11.24,-0.03,0.1,-0.03,6.71,1446.71,0.36,85113,-1.105956,36.975894,12420100,0
2023-08-01-15:42:06,1075,-0.61,0.71,10.08,-0.06,-0.01,-0.02,6.14,1446.14,-0.01,167914,-1.105956,36.975894,12420100,0
2023-08-01-15:42:06,1076,-0.76,1.22,10.82,-0.03,-0.06,-0.02,7.67,1447.67,87.06,85111,-1.105956,36.975894,20230601,0
2023-08-01-15:42:06,1077,-0.9,0.74,10.61,0,-0.02,-0.03,6.62,1446.62,-0.01,85111,-1.105956,36.975894,20230601,0
2023-08-01-15:42:06,1078,-0.8,0.99,10.98,0.06,0.31,-0.11,7.29,1447.29,0,85110,-1.105956,36.975894,20230601,0
2023-08-01-15:42:06,1079,-0.72,2.16,21.28,-0.08,-0.01,-0.04,7.38,1447.38,0.37,85108,-1.105956,36.975894,20230601,0
2023-08-01-15:42:06,1080,-1.12,0.93,11.16,-0.15,-0.01,-0.04,7.77,1447.77,0,85103,-1.105956333,36.97589183,12420200,0
2023-08-01-15:42:07,1081,-0.96,1.11,10.68,0.01,0.04,0,7.1,1447.1,-0.01,85102,-1.105956333,36.97589183,20230601,0
2023-08-01-15:42:07,1082,-0.94,1.04,10.56,0.06,0.06,0.01,7.67,1447.67,0,85100,-1.105956333,36.97589183,20230601,0
2023-08-01-15:42:07,1083,-0.88,0.78,10.93,0,0.09,0.01,8.34,1448.34,0.01,85101,-1.105956333,36.97589183,20230601,0
2023-08-01-15:42:07,1084,-0.6,0.67,10.21,-0.13,-0.12,-0.03,8.44,1448.44,-0.02,85101,-1.105956333,36.97589183,20230601,0
2023-08-01-15:42:07,1085,-1.41,0.98,11.2,-0.1,0,0,8.15,1448.15,-0.01,85093,-1.105956,36.97589067,12420300,0
2023-08-01-15:42:08,1086,-0.69,0.9,11.48,-0.01,0,0.01,9.4,1449.4,0.01,85088,-1.105956,36.97589067,12420300,0
2023-08-01-15:42:08,1087,-1.22,1.11,12.5,-0.04,0,0,8.44,1448.44,0,85093,-1.105956,36.97589067,20230601,0
2023-08-01-15:42:08,1088,-0.75,1.21,11.39,-0.07,0,-0.01,9.68,1449.68,0,85081,-1.105956,36.97589067,20230601,0
2023-08-01-15:42:08,1089,-1.29,0.99,12.03,-0.02,-0.04,-0.01,9.49,1449.49,0.4,85083,-1.105956,36.97589067,20230601,0
2023-08-01-15:42:08,1090,-1.25,0.94,11.87,-0.05,0.06,-0.02,9.4,1449.4,0.43,85081,-1.105956,36.97589067,20230601,0
2023-08-01-15:42:09,1091,-0.78,0.92,11.21,-0.02,-0.03,-0.04,9.3,1449.3,-0.01,85083,-1.105954167,36.97589217,12420400,0
2023-08-01-15:42:09,1092,-0.99,0.89,11.06,-0.06,0.01,-0.04,9.97,1449.97,0,85078,-1.105954167,36.97589217,20230601,0
2023-08-01-15:42:09,1093,-1.24,0.91,11.16,-0.01,0.04,-0.02,9.3,1449.3,85.84,85079,-1.105954167,36.97589217,20230601,0
2023-08-01-15:42:09,1094,-1.04,0.87,11.1,-0.11,-0.04,-0.05,9.59,1449.59,0.01,85085,-1.105954167,36.97589217,20230601,0
2023-08-01-15:42:09,1095,-1.19,0.8,10.59,-0.05,0.03,-0.02,8.44,1448.44,0.02,85101,-1.105954167,36.97589217,20230601,0
2023-08-01-15:42:09,1096,-0.86,0.65,10.15,-0.06,0.03,-0.01,6.81,1446.81,-0.01,85086,-1.105955833,36.97589233,12420500,0
2023-08-01-15:42:10,1097,-0.74,0.78,9.67,0,0,-0.03,7.96,1447.96,-0.01,85088,-1.105955833,36.97589233,12420500,0
2023-08-01-15:42:10,1098,-0.79,0.86,9.34,-0.09,-0.09,-0.07,8.34,1448.34,-0.01,85094,-1.105955833,36.97589233,20230601,0
2023-08-01-15:42:10,1099,-1.11,0.84,9.44,-0.09,-0.01,-0.05,8.92,1448.92,0,85085,-1.105955833,36.97589233,20230601,0
2023-08-01-15:42:10,1100,-0.69,0.84,9.06,0,0.6,-0.09,8.44,1448.44,-0.02,85088,-1.105955833,36.97589233,20230601,0
2023-08-01-15:42:10,1101,-0.75,0.8,8.97,0.06,-0.12,-0.12,8.44,1448.44,0,85092,-1.105955833,36.97589233,20230601,0
2023-08-01-15:42:10,1102,-0.59,0.73,9.43,-0.04,0.02,-0.02,8.25,1448.25,0.4,85078,-1.105955667,36.97589133,12420600,0
2023-08-01-15:42:11,1103,-0.85,1.04,10.19,-0.01,-0.01,-0.01,11.51,1451.51,0.01,85069,-1.105955667,36.97589133,20230601,0
2023-08-01-15:42:11,1104,-0.58,1.04,10.94,0.02,-0.02,0,10.26,1450.26,0,85065,-1.105955667,36.97589133,20230601,0
2023-08-01-15:42:11,1105,-0.94,0.78,10.33,-0.02,-0.03,0.01,8.53,1448.53,0,85090,-1.105955667,36.97589133,20230601,0
2023-08-01-15:42:11,1106,-1.02,0.99,10.8,-0.03,-0.07,-0.01,8.25,1448.25,0.02,85081,-1.105955667,36.97589133,20230601,0
2023-08-01-15:42:11,1107,-1.12,1.42,11.96,-0.12,0.15,-0.03,9.68,1449.68,-0.01,85071,-1.105958167,36.97588883,12420700,0
2023-08-01-15:42:12,1108,-0.44,1.32,10.43,-0.04,0.15,-0.05,9.97,1449.97,0.02,85086,-1.105958167,36.97588883,12420700,0
2023-08-01-15:42:12,1109,-1.07,1.28,10.89,-0.03,-0.01,-0.04,10.74,1450.74,-0.02,85060,-1.105958167,36.97588883,20230601,0
2023-08-01-15:42:12,1110,-0.69,0.96,10.58,-0.02,0.16,-0.02,10.84,1450.84,0,85065,-1.105958167,36.97588883,20230601,0
2023-08-01-15:42:12,1111,-1.11,1.13,11.44,0.01,0.11,-0.04,9.49,1449.49,-0.03,85067,-1.105958167,36.97588883,20230601,0
2023-08-01-15:42:12,1112,-0.65,1.45,10.97,-0.12,0.04,-0.04,8.44,1448.44,0.4,85093,-1.1059535,36.9758875,12420800,0
2023-08-01-15:42:12,1113,-0.88,1.37,9.52,-0.08,-0.08,-0.06,5.08,1445.08,-0.02,85136,-1.1059535,36.9758875,12420800,0
2023-08-01-15:42:13,1114,-0.97,0.83,10.72,-0.06,0.45,-0.02,4.6,1444.6,-0.03,85112,-1.1059535,36.9758875,20230601,0
2023-08-01-15:42:13,1115,-0.74,1.24,10.25,-0.02,-0.06,-0.04,11.79,1451.79,0.05,85101,-1.1059535,36.9758875,20230601,0
2023-08-01-15:42:13,1116,0.32,0.99,11.64,-0.08,-0.5,0.03,10.26,1450.26,0.01,85088,-1.1059535,36.9758875,20230601,0
2023-08-01-15:42:13,1117,0.55,1.08,10.44,0,-0.73,-0.03,10.93,1450.93,0,85073,-1.1059535,36.9758875,20230601,0
2023-08-01-15:42:13,1118,-4.32,0.86,11.43,0.07,-0.26,-0.03,9.78,1449.78,0,85084,-1.105954333,36.9758875,12420900,0
2023-08-01-15:42:14,1119,-1.12,1.28,10.21,-0.22,0.87,-0.09,8.63,1448.63,0,85104,-1.105954333,36.9758875,12420900,0
2023-08-01-15:42:14,1120,0.03,1,11.48,-0.02,0.32,-0.03,9.68,1449.68,0.03,85092,-1.105954333,36.9758875,20230601,0
2023-08-01-15:42:14,1121,-0.99,0.76,10.01,-0.03,-0.16,0,9.68,1449.68,0.01,85083,-1.105954333,36.9758875,20230601,0
2023-08-01-15:42:14,1122,-1.36,0.85,10.38,-0.17,-0.23,-0.07,11.41,1451.41,0.01,85069,-1.105954333,36.9758875,20230601,0
2023-08-01-15:42:14,1123,-1.93,1.13,10.37,-0.15,0.11,-0.09,10.55,1450.55,-0.01,85076,-1.105954333,36.9758875,20230601,0
2023-08-01-15:42:14,1124,-0.53,1.27,10.35,0.02,0.2,0,6.04,1446.04,-0.05,85089,-1.105954333,36.97588633,12421000,0
2023-08-01-15:42:15,1125,-0.66,0.77,10.83,0.1,-0.03,0.05,9.11,1449.11,0.03,85101,-1.105954333,36.97588633,20230601,0
2023-08-01-15:42:15,1126,-1.08,1.22,10.41,-0.42,-0.2,-0.08,5.37,1445.37,-0.07,85124,-1.105954333,36.97588633,20230601,0
2023-08-01-15:42:15,1127,-1.35,1.56,10.7,-0.38,-0.16,-0.09,8.44,1448.44,-0.05,85067,-1.105954333,36.97588633,20230601,0
2023-08-01-15:42:15,1128,-0.92,1.76,10.34,-0.26,-0.03,-0.06,9.59,1449.59,0,167963,-1.105954333,36.97588633,20230601,0
2023-08-01-15:42:15,1129,-1.43,1.37,10.64,0.29,0.14,0.05,9.88,1449.88,-0.01,85068,-1.105952833,36.97588317,12421100,0
2023-08-01-15:42:16,1130,-0.64,2.35,10.51,0.69,0.14,0.12,10.07,1450.07,0,85083,-1.105952833,36.97588317,12421100,0
2023-08-01-15:42:16,1131,-1.47,-0.02,11.36,0.63,0.05,0.09,4.89,1444.89,-0.08,85090,-1.105952833,36.97588317,20230601,0
2023-08-01-15:42:16,1132,-1.17,0.35,10.95,-0.1,0.04,-0.04,9.4,1449.4,0.01,85081,-1.105952833,36.97588317,20230601,0
2023-08-01-15:42:16,1133,-1.16,1.04,10.8,-0.35,-0.13,-0.08,7.67,1447.67,0,85115,-1.105952833,36.97588317,20230601,0
2023-08-01-15:42:16,1134,-1.26,1.36,10.82,0.15,0.18,0,8.15,1448.15,0.01,85121,-1.105952833,36.97588317,20230601,0
2023-08-01-15:42:17,1135,-0.91,1.47,10.85,0.21,0.16,0.01,4.99,1444.99,-0.04,85095,-1.105953833,36.975882,12421200,0
2023-08-01-15:42:17,1136,-0.61,0.73,10.07,0.11,0.06,-0.01,9.59,1449.59,0.06,85084,-1.105953833,36.975882,20230601,0
2023-08-01-15:42:17,1137,-1.14,1.22,11.27,-0.08,-0.1,-0.03,7.19,1447.19,-0.03,85088,-1.105953833,36.975882,20230601,0
2023-08-01-15:42:17,1138,-0.91,1.27,10.3,0.02,-0.01,0,7.29,1447.29,-0.02,85096,-1.105953833,36.975882,20230601,0
2023-08-01-15:42:17,1139,-1.6,1.39,10.97,0,-0.02,-0.04,8.44,1448.44,0.39,85082,-1.105953833,36.975882,20230601,0
2023-08-01-15:42:18,1140,-0.83,0.74,10.91,-0.06,0.1,-0.03,9.11,1449.11,0.01,85059,-1.1059515,36.97588217,12421300,0
2023-08-01-15:42:18,1141,-0.61,0.86,10.86,-0.35,0.04,-0.07,8.92,1448.92,-0.01,85113,-1.1059515,36.97588217,20230601,0
2023-08-01-15:42:18,1142,-0.79,1.58,10.33,-0.3,-0.19,-0.09,10.16,1450.16,0.02,85090,-1.1059515,36.97588217,20230601,0
2023-08-01-15:42:18,1143,-0.35,2.37,9.18,-0.52,-0.02,-0.05,9.78,1449.78,0,85072,-1.1059515,36.97588217,20230601,0
2023-08-01-15:42:18,1144,-0.56,1.72,9.94,-0.02,-0.16,-0.01,10.45,1450.45,0.03,85083,-1.1059515,36.97588217,20230601,0
2023-08-01-15:42:19,1145,-1.2,0.91,9.82,0.46,0.23,0.09,9.97,1449.97,0,85084,-1.1059515,36.97588217,20230601,0
2023-08-01-15:42:19,1146,-0.78,1.11,11.66,0.25,-0.05,0.03,9.01,1449.01,88.34,85068,-1.105947833,36.97587867,12421400,0
2023-08-01-15:42:19,1147,-0.15,0.88,10.17,-0.2,-0.29,-0.1,9.88,1449.88,0,85082,-1.105947833,36.97587867,20230601,0
2023-08-01-15:42:19,1148,-2.16,1.72,11.05,0.12,-0.01,0.01,10.07,1450.07,0,85071,-1.105947833,36.97587867,20230601,0
2023-08-01-15:42:19,1149,-1.5,0.98,10.79,0.16,-0.12,-0.04,11.12,1451.12,0.01,85068,-1.105947833,36.97587867,20230601,0
2023-08-01-15:42:19,1150,-0.99,0.73,10.88,-0.84,0.7,-0.11,10.16,1450.16,0,85070,-1.105947833,36.97587867,20230601,0
2023-08-01-15:42:20,1151,-1.09,1.42,10.83,-0.13,-0.02,-0.02,11.12,1451.12,0.03,85075,-1.105949333,36.97587817,12421500,0
2023-08-01-15:42:20,1152,-1.01,1.06,10.32,0,-0.1,-0.05,11.22,1451.22,0,85065,-1.105949333,36.97587817,12421500,0
2023-08-01-15:42:20,1153,-0.91,1.21,10.83,0,-0.13,-0.03,9.88,1449.88,-0.03,85071,-1.105949333,36.97587817,20230601,0
2023-08-01-15:42:20,1154,-1.15,1.19,10.72,-0.07,-0.12,0.01,7.96,1447.96,0.01,85086,-1.105949333,36.97587817,20230601,0
2023-08-01-15:42:20,1155,-1.26,1.36,11.56,-0.02,-0.31,0.01,8.05,1448.05,0,85097,-1.105949333,36.97587817,20230601,0
2023-08-01-15:42:21,1156,-2.21,1.39,10.75,0,-0.19,0.01,8.15,1448.15,-0.05,85076,-1.1059485,36.97588167,12421600,0
2023-08-01-15:42:21,1157,-1.66,1.23,10.79,-0.13,1.04,-0.12,11.31,1451.31,0.01,85088,-1.1059485,36.97588167,12421600,0
2023-08-01-15:42:21,1158,-0.22,1.09,11.29,-0.1,0.37,-0.09,9.49,1449.49,-0.02,85069,-1.1059485,36.97588167,20230601,0
2023-08-01-15:42:21,1159,-0.57,0.88,10.56,0.02,-0.12,0.02,11.22,1451.22,0.01,85066,-1.1059485,36.97588167,20230601,0
2023-08-01-15:42:21,1160,-1.4,1.57,10.84,-0.02,-0.46,0.01,11.03,1451.03,0,85058,-1.1059485,36.97588167,20230601,0
2023-08-01-15:42:21,1161,-1.48,1.65,11.14,-0.07,0.05,-0.04,10.26,1450.26,-0.02,85067,-1.1059485,36.97588167,20230601,0
2023-08-01-15:42:22,1162,-0.94,0.74,10.43,0,0.12,-0.05,11.22,1451.22,0.01,85070,-1.1059475,36.97588033,12421700,0
2023-08-01-15:42:22,1163,-1.13,1.45,11.19,-0.12,0.21,-0.04,9.21,1449.21,-0.02,85079,-1.1059475,36.97588033,20230601,0
2023-08-01-15:42:22,1164,-0.61,0.92,10.62,-0.07,0.1,-0.02,8.44,1448.44,0,85094,-1.1059475,36.97588033,20230601,0
2023-08-01-15:42:22,1165,-0.99,0.86,10.14,-0.13,-0.14,-0.04,8.92,1448.92,0,85094,-1.1059475,36.97588033,20230601,0
2023-08-01-15:42:22,1166,-0.86,1.12,10.59,0.05,-0.73,0.08,8.73,1448.73,0.01,85098,-1.1059475,36.97588033,20230601,0
2023-08-01-15:42:23,1167,-2.39,0.99,10.87,0.09,-0.67,0.05,9.49,1449.49,0,85083,-1.105946667,36.975878,12421800,0
2023-08-01-15:42:23,1168,-1.95,0.92,10.1,-0.09,0.21,-0.02,9.88,1449.88,-0.01,85081,-1.105946667,36.975878,20230601,0
2023-08-01-15:42:23,1169,-0.82,1.11,10.78,-0.01,0.28,-0.05,10.36,1450.36,0,85073,-1.105946667,36.975878,20230601,0
2023-08-01-15:42:23,1170,-0.92,1.51,10.31,-0.07,0.01,-0.03,10.93,1450.93,0.01,85077,-1.105946667,36.975878,20230601,0
2023-08-01-15:42:23,1171,-0.83,1.27,10.14,-0.03,-0.02,-0.03,10.07,1450.07,-0.01,85079,-1.105946667,36.975878,20230601,0
2023-08-01-15:42:24,1172,-1.17,1.06,10.75,-0.05,0.15,-0.04,10.36,1450.36,-0.01,85074,-1.105947,36.975879,12421900,0
2023-08-01-15:42:24,1173,-1.11,1.26,10.65,-0.26,-0.02,-0.09,8.53,1448.53,-0.01,85091,-1.105947,36.975879,12421900,0
2023-08-01-15:42:24,1174,-1.24,0.85,10.55,-0.08,0.1,-0.03,8.25,1448.25,0.34,85095,-1.105947,36.975879,20230601,0
2023-08-01-15:42:24,1175,-1.16,0.73,10.56,0.02,0.13,0.01,9.3,1449.3,0,85100,-1.105947,36.975879,20230601,0
2023-08-01-15:42:24,1176,-1.01,0.92,10.81,-0.17,0.11,0.07,9.4,1449.4,0,85087,-1.105947,36.975879,20230601,0
2023-08-01-15:42:24,1177,-1.06,1.28,10.35,-0.21,-0.14,0.28,9.01,1449.01,-0.01,85089,-1.105952333,36.97588,12422000,0
2023-08-01-15:42:25,1178,-1.41,1.19,10.86,-0.02,0.05,0.38,11.89,1451.89,0.02,85064,-1.105952333,36.97588,12422000,0
2023-08-01-15:42:25,1179,-0.97,1.39,10.57,-0.05,0.05,0.37,12.66,1452.66,0,85051,-1.105952333,36.97588,20230601,0
2023-08-01-15:42:25,1180,-0.85,0.95,10.36,-0.08,0.02,0.39,10.64,1450.64,-0.03,85055,-1.105952333,36.97588,20230601,0
2023-08-01-15:42:25,1181,-0.87,0.97,11.14,-0.19,0.09,0.4,10.64,1450.64,-0.01,85060,-1.105952333,36.97588,20230601,0
2023-08-01-15:42:25,1182,-0.58,1.09,10.06,-0.12,-0.1,0.44,14.67,1454.67,0.03,85048,-1.105952333,36.97588,20230601,0
2023-08-01-15:42:25,1183,-1.25,1.02,11.23,-0.13,0,0.45,13.33,1453.33,-0.02,85034,-1.105955333,36.97588233,12422100,0
2023-08-01-15:42:26,1184,-1.03,0.84,10.52,-0.09,0.1,0.54,13.62,1453.62,0.01,85038,-1.105955333,36.97588233,12422100,0
2023-08-01-15:42:26,1185,-1.17,0.67,10.87,-0.07,0.03,0.55,12.08,1452.08,-0.03,85069,-1.105955333,36.97588233,20230601,0
2023-08-01-15:42:26,1186,-0.81,0.8,10.44,-0.1,0.04,0.57,12.75,1452.75,0,85040,-1.105955333,36.97588233,20230601,0
2023-08-01-15:42:26,1187,-0.96,0.97,11.03,-0.21,0.12,0.59,12.95,1452.95,-0.03,85049,-1.105955333,36.97588233,20230601,0
2023-08-01-15:42:26,1188,-0.47,1.2,10.49,-0.16,-0.12,0.58,12.18,1452.18,0,85044,-1.105955333,36.97588233,20230601,0
2023-08-01-15:42:27,1189,-1.16,1.02,10.7,-0.09,-0.18,0.64,11.99,1451.99,-0.02,85059,-1.105953,36.97588233,12422200,0
2023-08-01-15:42:27,1190,-1.02,0.5,10.4,-0.05,-0.07,0.63,12.56,1452.56,0.01,85055,-1.105953,36.97588233,20230601,0
2023-08-01-15:42:27,1191,-1.22,0.66,11.34,-0.03,0.24,0.44,13.14,1453.14,0,85051,-1.105953,36.97588233,20230601,0
2023-08-01-15:42:27,1192,-0.29,0.57,10.44,-0.07,-0.02,0.11,12.95,1452.95,-0.03,85058,-1.105953,36.97588233,20230601,0
2023-08-01-15:42:27,1193,-0.83,0.56,11.07,-0.18,0.02,-0.01,12.18,1452.18,0,85076,-1.105953,36.97588233,20230601,0
2023-08-01-15:42:27,1194,-0.72,0.55,10.56,-0.17,-0.04,-0.01,9.3,1449.3,-0.03,85078,-1.105948,36.975882,12422300,0
2023-08-01-15:42:28,1195,-0.63,0.48,10.57,-0.05,0.01,-0.01,12.08,1452.08,50.79,85046,-1.105948,36.975882,20230601,0
2023-08-01-15:42:28,1196,-0.92,0.59,10.72,0,-0.08,-0.03,12.08,1452.08,0,85047,-1.105948,36.975882,20230601,0
2023-08-01-15:42:28,1197,-0.83,0.83,10.84,-0.14,0.07,-0.03,11.6,1451.6,-0.01,85059,-1.105948,36.975882,20230601,0
2023-08-01-15:42:28,1198,-0.66,0.52,10.69,0.06,0.02,-0.01,11.7,1451.7,-0.01,85057,-1.105948,36.975882,20230601,0
2023-08-01-15:42:29,1199,-0.72,0.7,11.1,-0.02,-0.01,-0.04,11.12,1451.12,-0.02,85061,-1.1059445,36.9758845,12422400,0
2023-08-01-15:42:29,1200,-0.83,0.51,10.64,-0.06,-0.11,-0.03,13.33,1453.33,0.01,85054,-1.1059445,36.9758845,12422400,0
2023-08-01-15:42:29,1201,-0.57,0.58,10.97,-0.02,-0.26,-0.01,12.08,1452.08,49.29,85054,-1.1059445,36.9758845,20230601,0
2023-08-01-15:42:29,1202,-1.67,0.55,10.5,-0.01,0.33,-0.03,12.85,1452.85,47.9,85048,-1.1059445,36.9758845,20230601,0
2023-08-01-15:42:29,1203,-1.07,0.66,10.88,0,0.59,-0.06,12.85,1452.85,0.01,85050,-1.1059445,36.9758845,20230601,0
2023-08-01-15:42:30,1204,0.01,0.73,10.67,0.01,0.36,-0.02,13.14,1453.14,0,85050,-1.1059445,36.9758845,20230601,0
2023-08-01-15:42:30,1205,0.77,0.5,11.21,-0.01,0.06,-0.02,14.29,1454.29,0.01,85042,-1.105946667,36.97588517,12422500,0
2023-08-01-15:42:30,1206,-1.23,0.43,11.4,-0.1,-0.38,-0.01,13.23,1453.23,0,85050,-1.105946667,36.97588517,20230601,0
2023-08-01-15:42:30,1207,-1.41,0.74,12.35,-0.08,-0.28,-0.01,13.52,1453.52,0.01,85044,-1.105946667,36.97588517,20230601,0
2023-08-01-15:42:30,1208,-0.92,0.79,11.84,-0.01,-0.17,-0.02,14.58,1454.58,0.01,85037,-1.105946667,36.97588517,20230601,0
2023-08-01-15:42:30,1209,-1.24,0.42,12.46,-0.03,0.04,-0.02,14.77,1454.77,0,85034,-1.105946667,36.97588517,20230601,0
2023-08-01-15:42:31,1210,-0.68,0.31,11.31,-0.1,0.01,-0.03,15.15,1455.15,0.01,85029,-1.105947167,36.975885,12422600,0
2023-08-01-15:42:31,1211,-0.91,0.64,11.64,-0.06,0.04,-0.05,14.87,1454.87,0.01,85029,-1.105947167,36.975885,12422600,0
2023-08-01-15:42:31,1212,-1.01,0.6,11.52,-0.03,0.06,-0.04,14.77,1454.77,0,85035,-1.105947167,36.975885,20230601,0
2023-08-01-15:42:31,1213,-0.74,0.68,11.36,0.03,0.01,-0.03,15.06,1455.06,0,85025,-1.105947167,36.975885,20230601,0
2023-08-01-15:42:31,1214,-0.99,0.4,10.86,-0.02,0.01,-0.03,15.44,1455.44,0,85015,-1.105947167,36.975885,20230601,0
2023-08-01-15:42:31,1215,-0.78,0.45,10.94,-0.08,0.03,-0.03,15.73,1455.73,0,85015,-1.105947167,36.975885,20230601,0
2023-08-01-15:42:32,1216,-1.19,0.6,10.86,-0.03,0.01,-0.04,16.3,1456.3,-0.01,85014,-1.105950833,36.9758855,12422700,0
2023-08-01-15:42:32,1217,-1.03,0.59,10.74,0.01,0.03,-0.03,17.46,1457.46,0.01,85007,-1.105950833,36.9758855,20230601,0
2023-08-01-15:42:32,1218,-0.83,0.52,10.5,0,0.04,0,17.26,1457.26,0,85008,-1.105950833,36.9758855,20230601,0
2023-08-01-15:42:32,1219,-0.76,0.7,10.99,-0.06,-0.02,-0.02,17.26,1457.26,0,85001,-1.105950833,36.9758855,20230601,0
2023-08-01-15:42:32,1220,-0.95,0.64,10.36,-0.01,-0.01,-0.01,16.3,1456.3,-0.01,85008,-1.105950833,36.9758855,20230601,0
2023-08-01-15:42:33,1221,-0.84,0.6,10.49,-0.1,-0.02,-0.03,15.82,1455.82,0.43,85012,-1.105952333,36.97588883,12422800,0
2023-08-01-15:42:33,1222,0.94,3.12,10.41,0.39,-0.26,-0.04,19.86,1459.86,0.02,85003,-1.105952333,36.97588883,20230601,0
2023-08-01-15:42:33,1223,-2,0.19,10.93,0.16,-0.08,0.03,18.32,1458.32,-0.01,84993,-1.105952333,36.97588883,20230601,0
2023-08-01-15:42:33,1224,-0.97,-0.14,10.76,-0.51,0.28,-0.08,19.86,1459.86,0.03,85007,-1.105952333,36.97588883,20230601,0
2023-08-01-15:42:33,1225,-0.41,1.24,10.8,-0.06,-0.37,0,18.51,1458.51,0,84994,-1.105952333,36.97588883,20230601,0
2023-08-01-15:42:33,1226,-0.59,0.81,10.55,0.1,-0.43,0,18.8,1458.8,0.01,84984,-1.105953,36.975891,12422900,0
2023-08-01-15:42:34,1227,-0.88,0.49,10.37,0.04,-0.4,0.01,18.42,1458.42,-0.01,84987,-1.105953,36.975891,12422900,0
2023-08-01-15:42:34,1228,-0.88,0.65,9.86,-0.03,-0.25,0.01,18.13,1458.13,0,85296,-1.105953,36.975891,20230601,0
2023-08-01-15:42:34,1229,-0.48,0.82,8.71,-0.05,-0.17,0,18.61,1458.61,0.01,84990,-1.105953,36.975891,20230601,0
2023-08-01-15:42:34,1230,-0.79,0.47,9.68,-0.01,0.12,0,17.94,1457.94,-0.01,84989,-1.105953,36.975891,20230601,0
2023-08-01-15:42:34,1231,-0.71,0.51,9.95,-0.16,0.16,-0.04,18.03,1458.03,0,84987,-1.105957,36.97589033,12423000,0
2023-08-01-15:42:35,1232,-0.32,0.64,10.19,-0.19,0.08,-0.04,17.84,1457.84,0,84992,-1.105957,36.97589033,12423000,0
2023-08-01-15:42:35,1233,-0.58,1.02,10.58,0.02,0.04,0.01,18.9,1458.9,0.01,167761,-1.105957,36.97589033,20230601,0
2023-08-01-15:42:35,1234,-0.15,0.81,11,-0.05,0.08,-0.02,18.9,1458.9,0,84981,-1.105957,36.97589033,20230601,0
2023-08-01-15:42:35,1235,-0.13,0.71,11.03,-0.09,0.16,-0.03,19.76,1459.76,0,84977,-1.105957,36.97589033,20230601,0
2023-08-01-15:42:35,1236,-0.64,0.88,12.76,0,0.05,-0.03,20.72,1460.72,0,84968,-1.105957,36.97589033,20230601,0
2023-08-01-15:42:36,1237,-0.66,0.93,14.32,-0.07,0.16,-0.02,21.2,1461.2,0,84960,-1.1059585,36.9758885,12423100,0
2023-08-01-15:42:36,1238,-0.48,0.72,14.21,-0.06,0.13,0,21.58,1461.58,0,84965,-1.1059585,36.9758885,12423100,0
2023-08-01-15:42:36,1239,-0.27,0.88,13.33,0.01,0.08,-0.15,19.38,1459.38,-0.03,84974,-1.1059585,36.9758885,20230601,0
2023-08-01-15:42:36,1240,-0.35,0.8,12.33,-0.04,0.01,-0.04,15.82,1455.82,-0.02,85016,-1.1059585,36.9758885,20230601,0
2023-08-01-15:42:36,1241,-0.19,0.97,11.91,-0.09,-0.03,-0.05,15.44,1455.44,0,85023,-1.1059585,36.9758885,20230601,0
2023-08-01-15:42:36,1242,-0.11,0.59,9.9,-0.06,-0.16,-0.05,16.88,1456.88,0.01,85012,-1.1059555,36.97588733,12423200,0
2023-08-01-15:42:37,1243,-0.32,0.43,8.77,-0.07,-0.06,-0.06,21.68,1461.68,0.05,84994,-1.1059555,36.97588733,12423200,0
2023-08-01-15:42:37,1244,-0.19,0.51,8.7,-0.05,0.09,-0.02,21.49,1461.49,-0.01,84951,-1.1059555,36.97588733,20230601,0
2023-08-01-15:42:37,1245,0.09,0.4,9.14,-0.06,0.2,-0.01,21.49,1461.49,-0.03,84946,-1.1059555,36.97588733,20230601,0
2023-08-01-15:42:37,1246,0.13,0.53,9.79,-0.02,0.11,-0.01,21.01,1461.01,0,84968,-1.1059555,36.97588733,20230601,0
2023-08-01-15:42:37,1247,0.27,0.49,9.81,-0.05,0.01,-0.02,20.82,1460.82,-0.02,84958,-1.1059555,36.97588733,20230601,0
2023-08-01-15:42:38,1248,-0.48,0.54,11.32,-0.07,0.33,-0.01,21.78,1461.78,50.08,84955,-1.105938667,36.97589133,12423300,0
2023-08-01-15:42:38,1249,-0.16,0.33,9.18,-0.02,0.34,-0.04,21.01,1461.01,-0.03,84961,-1.105938667,36.97589133,20230601,0
2023-08-01-15:42:38,1250,-0.84,-0.99,10.44,-0.45,2.32,-0.41,22.06,1462.06,0,84959,-1.105938667,36.97589133,20230601,0
2023-08-01-15:42:38,1251,1.8,3.15,24.75,-0.01,1.25,-0.02,22.45,1462.45,0.02,84962,-1.105938667,36.97589133,20230601,0
2023-08-01-15:42:38,1252,-0.14,0.3,11.68,0.22,0.36,0.06,22.16,1462.16,0,84949,-1.105938667,36.97589133,20230601,0
2023-08-01-15:42:39,1253,1.14,1.02,12.35,0.07,-1.24,0.13,21.58,1461.58,-0.02,84948,-1.105915167,36.97590483,12423400,0
2023-08-01-15:42:39,1254,-0.55,0.42,11.59,-0.17,-1.66,0.14,22.26,1462.26,0.42,84951,-1.105915167,36.97590483,20230601,0
2023-08-01-15:42:39,1255,-2.28,0.57,10.56,-0.15,-0.96,0.08,22.93,1462.93,0.01,84956,-1.105915167,36.97590483,20230601,0
2023-08-01-15:42:39,1256,-2.08,0.66,10.51,0.04,0.48,0.01,22.06,1462.06,0,84954,-1.105915167,36.97590483,20230601,0
2023-08-01-15:42:39,1257,0.59,0.29,10.69,0.01,0.1,-0.02,21.58,1461.58,-0.02,84956,-1.105915167,36.97590483,20230601,0
2023-08-01-15:42:40,1258,-0.17,0.27,11.19,-0.04,-0.37,0,22.54,1462.54,0.01,84954,-1.105884,36.97592117,12423500,0
2023-08-01-15:42:40,1259,-0.56,0.57,10.83,-0.04,-0.54,0.01,22.06,1462.06,-0.01,84952,-1.105884,36.97592117,12423500,0
2023-08-01-15:42:40,1260,-0.68,0.32,10.59,-0.13,-0.31,-0.02,21.87,1461.87,-0.02,84954,-1.105884,36.97592117,20230601,0
2023-08-01-15:42:40,1261,-0.89,0.5,11.08,-0.04,0.03,-0.02,22.06,1462.06,0.4,84953,-1.105884,36.97592117,20230601,0
2023-08-01-15:42:40,1262,-0.36,0.45,10.86,-0.06,-0.01,-0.03,21.78,1461.78,-0.01,84951,-1.105884,36.97592117,20230601,0
